
time,ax,ay,az,Latitude,Longitude,Speed (m/s),
0.048119,0.0000,0.0000,0.0000,0.00000000,0.00000000,0.00000000,
0.109088,0.0000,0.0000,0.0000,55.75351501,48.74237753,0.00000000,
0.109605,0.0000,0.0000,0.0000,55.75351501,48.74237753,0.00000000,
0.110035,0.0000,0.0000,0.0000,55.75351501,48.74237753,0.00000000,
0.110893,0.0000,0.0000,0.0000,55.75351501,48.74237753,0.00000000,
0.175370,0.0000,0.0000,0.0000,55.75351501,48.74237753,0.00000000,
0.176227,0.0000,0.0000,0.0000,55.75351501,48.74237753,0.00000000,
0.176784,0.0000,0.0000,0.0000,55.75351501,48.74237753,0.00000000,
0.177302,0.0000,0.0000,0.0000,55.75351501,48.74237753,0.00000000,
0.179863,0.0000,0.0000,0.0000,55.75351501,48.74237753,0.00000000,
0.180826,0.0000,0.0000,0.0000,55.75351501,48.74237753,0.00000000,
0.242085,0.0000,0.0000,0.0000,55.75351501,48.74237753,0.00000000,
0.243172,0.0000,0.0000,0.0000,55.75351501,48.74237753,0.00000000,
0.243897,0.0000,0.0000,0.0000,55.75351501,48.74237753,0.00000000,
0.248657,0.0000,0.0000,0.0000,55.75351501,48.74237753,0.00000000,
0.249672,0.0000,0.0000,0.0000,55.75351501,48.74237753,0.00000000,
0.250219,0.0416,-0.0467,-0.3697,55.75351501,48.74237753,0.00000000,
0.308233,0.0416,-0.0467,-0.3697,55.75351501,48.74237753,0.00000000,
0.308902,0.0416,-0.0467,-0.3697,55.75351501,48.74237753,0.00000000,
0.309364,0.0416,-0.0467,-0.3697,55.75351501,48.74237753,0.00000000,
0.318394,0.0416,-0.0467,-0.3697,55.75351501,48.74237753,0.00000000,
0.319196,-0.4577,-0.0148,-0.6010,55.75351501,48.74237753,0.00000000,
0.336456,-0.4577,-0.0148,-0.6010,55.75351501,48.74237753,0.00000000,
0.375380,-0.4577,-0.0148,-0.6010,55.75351501,48.74237753,0.00000000,
0.376134,-0.4577,-0.0148,-0.6010,55.75351501,48.74237753,0.00000000,
0.385328,-0.4577,-0.0148,-0.6010,55.75351501,48.74237753,0.00000000,
0.386082,-0.4577,-0.0148,-0.6010,55.75351501,48.74237753,0.00000000,
0.386590,-0.3842,-0.1703,0.3721,55.75351501,48.74237753,0.00000000,
0.441556,-0.3842,-0.1703,0.3721,55.75351501,48.74237753,0.00000000,
0.442214,-0.3842,-0.1703,0.3721,55.75351501,48.74237753,0.00000000,
0.454897,-0.3842,-0.1703,0.3721,55.75351501,48.74237753,0.00000000,
0.457149,-0.3842,-0.1703,0.3721,55.75351501,48.74237753,0.00000000,
0.458720,-0.0523,0.7108,0.9159,55.75351501,48.74237753,0.00000000,
0.508851,-0.0523,0.7108,0.9159,55.75351501,48.74237753,0.00000000,
0.510272,-0.0523,0.7108,0.9159,55.75351501,48.74237753,0.00000000,
0.511456,-0.0523,0.7108,0.9159,55.75351501,48.74237753,0.00000000,
0.523889,-0.0523,0.7108,0.9159,55.75351501,48.74237753,0.00000000,
0.525351,-0.5554,-0.0324,0.8984,55.75351501,48.74237753,0.00000000,
0.527160,-0.5554,-0.0324,0.8984,55.75351501,48.74237753,0.00000000,
0.575478,-0.5554,-0.0324,0.8984,55.75351501,48.74237753,0.00000000,
0.577171,-0.5554,-0.0324,0.8984,55.75351501,48.74237753,0.00000000,
0.592107,-0.5554,-0.0324,0.8984,55.75351501,48.74237753,0.00000000,
0.594096,0.6344,0.1127,1.0323,55.75351501,48.74237753,0.00000000,
0.595305,0.6344,0.1127,1.0323,55.75351501,48.74237753,0.00000000,
0.642095,0.6344,0.1127,1.0323,55.75351501,48.74237753,0.00000000,
0.643763,0.6344,0.1127,1.0323,55.75351501,48.74237753,0.00000000,
0.644833,0.6344,0.1127,1.0323,55.75351501,48.74237753,0.00000000,
0.662760,0.6344,0.1127,1.0323,55.75351501,48.74237753,0.00000000,
0.663997,0.6344,0.1127,1.0323,55.75351501,48.74237753,0.00000000,
0.664775,0.4994,0.2749,-1.3495,55.75351501,48.74237753,0.00000000,
0.709094,0.4994,0.2749,-1.3495,55.75351501,48.74237753,0.00000000,
0.710532,0.4994,0.2749,-1.3495,55.75351501,48.74237753,0.00000000,
0.729204,0.4994,0.2749,-1.3495,55.75351501,48.74237753,0.00000000,
0.730982,0.4994,0.2749,-1.3495,55.75351501,48.74237753,0.00000000,
0.732068,-0.0304,0.2163,-0.1968,55.75351501,48.74237753,0.00000000,
0.775905,-0.0304,0.2163,-0.1968,55.75351501,48.74237753,0.00000000,
0.777812,-0.0304,0.2163,-0.1968,55.75351501,48.74237753,0.00000000,
0.797800,-0.0304,0.2163,-0.1968,55.75351501,48.74237753,0.00000000,
0.799609,-0.0304,0.2163,-0.1968,55.75351501,48.74237753,0.00000000,
0.800805,-0.0304,0.2163,-0.1968,55.75351501,48.74237753,0.00000000,
0.801810,-0.6620,0.5643,-0.2849,55.75351501,48.74237753,0.00000000,
0.841940,-0.6620,0.5643,-0.2849,55.75351501,48.74237753,0.00000000,
0.844734,-0.6620,0.5643,-0.2849,55.75351501,48.74237753,0.00000000,
0.866686,-0.6620,0.5643,-0.2849,55.75351501,48.74237753,0.00000000,
0.868664,-0.6620,0.5643,-0.2849,55.75351501,48.74237753,0.00000000,
0.869950,-0.5059,0.8665,1.2359,55.75351501,48.74237753,0.00000000,
0.908969,-0.5059,0.8665,1.2359,55.75351501,48.74237753,0.00000000,
0.910689,-0.5059,0.8665,1.2359,55.75351501,48.74237753,0.00000000,
0.935191,-0.5059,0.8665,1.2359,55.75351501,48.74237753,0.00000000,
0.936724,-0.5059,0.8665,1.2359,55.75351501,48.74237753,0.00000000,
0.937747,-0.5059,0.8665,1.2359,55.75351501,48.74237753,0.00000000,
0.938675,-0.2768,1.5389,0.5564,55.75351501,48.74237753,0.00000000,
0.975437,-0.2768,1.5389,0.5564,55.75351501,48.74237753,0.00000000,
0.977097,-0.2768,1.5389,0.5564,55.75351501,48.74237753,0.00000000,
1.004375,-0.2768,1.5389,0.5564,55.75351501,48.74237753,0.00000000,
1.006163,-0.2768,1.5389,0.5564,55.75351501,48.74237753,0.00000000,
1.007143,-0.9755,0.7293,0.5533,55.75351501,48.74237753,0.00000000,
1.034158,-0.9755,0.7293,0.5533,55.75351501,48.74237753,0.00000000,
1.036059,-0.9755,0.7293,0.5533,55.75351501,48.74237753,0.00000000,
1.074742,-0.9755,0.7293,0.5533,55.75351501,48.74237753,0.00000000,
1.077043,-0.9755,0.7293,0.5533,55.75351501,48.74237753,0.00000000,
1.078684,-0.9755,0.7293,0.5533,55.75351501,48.74237753,0.00000000,
1.080065,-1.2866,0.4596,-1.2857,55.75351501,48.74237753,0.00000000,
1.108452,-1.2866,0.4596,-1.2857,55.75351501,48.74237753,0.00000000,
1.140893,-1.2866,0.4596,-1.2857,55.75351501,48.74237753,0.00000000,
1.142642,-1.2866,0.4596,-1.2857,55.75351501,48.74237753,0.00000000,
1.144164,-1.2866,0.4596,-1.2857,55.75351501,48.74237753,0.00000000,
1.145628,-1.1412,0.4961,-2.6079,55.75351501,48.74237753,0.00000000,
1.175362,-1.1412,0.4961,-2.6079,55.75351501,48.74237753,0.00000000,
1.177710,-1.1412,0.4961,-2.6079,55.75351501,48.74237753,0.00000000,
1.208922,-1.1412,0.4961,-2.6079,55.75351501,48.74237753,0.00000000,
1.209725,-1.3173,0.5522,-1.1770,55.75351501,48.74237753,0.00000000,
1.210909,-1.3173,0.5522,-1.1770,55.75351501,48.74237753,0.00000000,
1.211497,-1.3173,0.5522,-1.1770,55.75351501,48.74237753,0.00000000,
1.241744,-1.3173,0.5522,-1.1770,55.75351501,48.74237753,0.00000000,
1.279229,-1.3173,0.5522,-1.1770,55.75351501,48.74237753,0.00000000,
1.280069,-1.3173,0.5522,-1.1770,55.75351501,48.74237753,0.00000000,
1.280704,-1.2632,0.4737,0.3248,55.75351501,48.74237753,0.00000000,
1.281481,-1.2632,0.4737,0.3248,55.75351501,48.74237753,0.00000000,
1.308531,-1.2632,0.4737,0.3248,55.75351501,48.74237753,0.00000000,
1.309366,-1.2632,0.4737,0.3248,55.75351501,48.74237753,0.00000000,
1.348017,-1.2632,0.4737,0.3248,55.75351501,48.74237753,0.00000000,
1.349997,-1.2632,0.4737,0.3248,55.75351501,48.74237753,0.00000000,
1.351483,-1.2632,0.4737,0.3248,55.75351501,48.74237753,0.00000000,
1.353033,2.7679,-0.9424,5.4806,55.75351501,48.74237753,0.00000000,
1.376444,2.7679,-0.9424,5.4806,55.75351501,48.74237753,0.00000000,
1.415900,2.7679,-0.9424,5.4806,55.75351501,48.74237753,0.00000000,
1.417653,2.7679,-0.9424,5.4806,55.75351501,48.74237753,0.00000000,
1.418971,0.1924,0.4343,-2.8697,55.75351501,48.74237753,0.00000000,
1.420810,0.1924,0.4343,-2.8697,55.75351501,48.74237753,0.00000000,
1.442423,0.1924,0.4343,-2.8697,55.75351501,48.74237753,0.00000000,
1.484160,0.1924,0.4343,-2.8697,55.75351501,48.74237753,0.00000000,
1.485819,0.1924,0.4343,-2.8697,55.75351501,48.74237753,0.00000000,
1.486939,0.1924,0.4343,-2.8697,55.75351501,48.74237753,0.00000000,
1.487962,1.7503,-0.4840,1.7362,55.75351501,48.74237753,0.00000000,
1.489794,1.7503,-0.4840,1.7362,55.75351501,48.74237753,0.00000000,
1.509306,1.7503,-0.4840,1.7362,55.75351501,48.74237753,0.00000000,
1.552481,1.7503,-0.4840,1.7362,55.75351501,48.74237753,0.00000000,
1.554024,1.7503,-0.4840,1.7362,55.75351501,48.74237753,0.00000000,
1.554787,1.7503,-0.4840,1.7362,55.75351501,48.74237753,0.00000000,
1.555500,0.5154,-2.1852,0.8292,55.75351501,48.74237753,0.00000000,
1.575430,0.5154,-2.1852,0.8292,55.75351501,48.74237753,0.00000000,
1.621156,0.5154,-2.1852,0.8292,55.75351501,48.74237753,0.00000000,
1.623191,0.5154,-2.1852,0.8292,55.75351501,48.74237753,0.00000000,
1.624736,0.5154,-2.1852,0.8292,55.75351501,48.74237753,0.00000000,
1.626057,0.5154,-2.1852,0.8292,55.75351501,48.74237753,0.00000000,
1.627295,-1.6559,-2.2149,-0.7940,55.75351501,48.74237753,0.00000000,
1.642738,-1.6559,-2.2149,-0.7940,55.75351501,48.74237753,0.00000000,
1.689999,-1.6559,-2.2149,-0.7940,55.75351501,48.74237753,0.00000000,
1.692111,-1.6559,-2.2149,-0.7940,55.75351501,48.74237753,0.00000000,
1.694223,-1.6559,-2.2149,-0.7940,55.75351501,48.74237753,0.00000000,
1.695392,-0.1339,-0.9125,-2.7684,55.75351501,48.74237753,0.00000000,
1.709064,-0.1339,-0.9125,-2.7684,55.75351501,48.74237753,0.00000000,
1.758180,-0.1339,-0.9125,-2.7684,55.75351501,48.74237753,0.00000000,
1.760043,1.4873,-0.5548,0.3134,55.75351501,48.74237753,0.00000000,
1.761677,1.4873,-0.5548,0.3134,55.75351501,48.74237753,0.00000000,
1.762952,1.4873,-0.5548,0.3134,55.75351501,48.74237753,0.00000000,
1.764147,1.4873,-0.5548,0.3134,55.75351501,48.74237753,0.00000000,
1.826750,1.4873,-0.5548,0.3134,55.75351501,48.74237753,0.00000000,
1.827893,1.4873,-0.5548,0.3134,55.75351501,48.74237753,0.00000000,
1.828463,1.4873,-0.5548,0.3134,55.75351501,48.74237753,0.00000000,
1.829010,1.2021,-0.1432,-0.5243,55.75351501,48.74237753,0.00000000,
1.830073,1.2021,-0.1432,-0.5243,55.75351501,48.74237753,0.00000000,
1.842031,1.2021,-0.1432,-0.5243,55.75351501,48.74237753,0.00000000,
1.896000,1.2021,-0.1432,-0.5243,55.75351501,48.74237753,0.00000000,
1.897850,1.2021,-0.1432,-0.5243,55.75351501,48.74237753,0.00000000,
1.899192,2.5321,0.0593,1.2416,55.75351501,48.74237753,0.00000000,
1.900340,2.5321,0.0593,1.2416,55.75351501,48.74237753,0.00000000,
1.900948,2.5321,0.0593,1.2416,55.75351501,48.74237753,0.00000000,
1.965450,2.5321,0.0593,1.2416,55.75351501,48.74237753,0.00000000,
1.967133,2.5321,0.0593,1.2416,55.75351501,48.74237753,0.00000000,
1.967796,2.5321,0.0593,1.2416,55.75351501,48.74237753,0.00000000,
1.968397,2.5321,0.0593,1.2416,55.75351501,48.74237753,0.00000000,
1.969023,2.6321,0.7222,0.6284,55.75351501,48.74237753,0.00000000,
1.975496,2.6321,0.7222,0.6284,55.75351501,48.74237753,0.00000000,
2.035263,2.6321,0.7222,0.6284,55.75351501,48.74237753,0.00000000,
2.036724,2.6321,0.7222,0.6284,55.75351501,48.74237753,0.00000000,
2.037738,2.6321,0.7222,0.6284,55.75351501,48.74237753,0.00000000,
2.038743,2.6321,0.7222,0.6284,55.75351501,48.74237753,0.00000000,
2.040242,1.0010,0.9354,1.6382,55.75351501,48.74237753,0.00000000,
2.100978,1.0010,0.9354,1.6382,55.75351501,48.74237753,0.00000000,
2.101717,1.0010,0.9354,1.6382,55.75351501,48.74237753,0.00000000,
2.102160,1.0010,0.9354,1.6382,55.75351501,48.74237753,0.00000000,
2.102554,1.0010,0.9354,1.6382,55.75351501,48.74237753,0.00000000,
2.103009,-0.8520,1.4162,0.0280,55.75351501,48.74237753,0.00000000,
2.170596,-0.8520,1.4162,0.0280,55.75351501,48.74237753,0.00000000,
2.172164,-3.0281,0.4035,0.7379,55.75351501,48.74237753,0.00000000,
2.174295,-3.0281,0.4035,0.7379,55.75351501,48.74237753,0.00000000,
2.175596,-3.0281,0.4035,0.7379,55.75351501,48.74237753,0.00000000,
2.176631,-3.0281,0.4035,0.7379,55.75351501,48.74237753,0.00000000,
2.177646,-3.0281,0.4035,0.7379,55.75351501,48.74237753,0.00000000,
2.238695,-3.0281,0.4035,0.7379,55.75351501,48.74237753,0.00000000,
2.241292,-3.0281,0.4035,0.7379,55.75351501,48.74237753,0.00000000,
2.242745,-3.0281,0.4035,0.7379,55.75351501,48.74237753,0.00000000,
2.244274,-3.0281,0.4035,0.7379,55.75351501,48.74237753,0.00000000,
2.245333,-2.4192,-1.8368,2.4110,55.75351501,48.74237753,0.00000000,
2.306981,-2.4192,-1.8368,2.4110,55.75351501,48.74237753,0.00000000,
2.308804,-2.4192,-1.8368,2.4110,55.75351501,48.74237753,0.00000000,
2.309874,-2.4192,-1.8368,2.4110,55.75351501,48.74237753,0.00000000,
2.310831,-2.4192,-1.8368,2.4110,55.75351501,48.74237753,0.00000000,
2.311733,-2.9278,-2.0529,-0.4423,55.75351501,48.74237753,0.00000000,
2.313755,-2.9278,-2.0529,-0.4423,55.75351501,48.74237753,0.00000000,
2.376607,-2.9278,-2.0529,-0.4423,55.75351501,48.74237753,0.00000000,
2.379556,-2.9278,-2.0529,-0.4423,55.75351501,48.74237753,0.00000000,
2.381402,-2.9278,-2.0529,-0.4423,55.75351501,48.74237753,0.00000000,
2.383292,-2.9278,-2.0529,-0.4423,55.75351501,48.74237753,0.00000000,
2.385220,-1.7998,-1.7109,-1.2743,55.75351501,48.74237753,0.00000000,
2.442470,-1.7998,-1.7109,-1.2743,55.75351501,48.74237753,0.00000000,
2.445693,-1.7998,-1.7109,-1.2743,55.75351501,48.74237753,0.00000000,
2.446926,-1.7998,-1.7109,-1.2743,55.75351501,48.74237753,0.00000000,
2.448151,-1.7998,-1.7109,-1.2743,55.75351501,48.74237753,0.00000000,
2.449325,-1.7998,-1.7109,-1.2743,55.75351501,48.74237753,0.00000000,
2.450508,-1.4083,-1.6569,0.0644,55.75351501,48.74237753,0.00000000,
2.508752,-1.4083,-1.6569,0.0644,55.75351501,48.74237753,0.00000000,
2.510285,-1.4083,-1.6569,0.0644,55.75351501,48.74237753,0.00000000,
2.511192,-1.4083,-1.6569,0.0644,55.75351501,48.74237753,0.00000000,
2.513165,-1.4083,-1.6569,0.0644,55.75351501,48.74237753,0.00000000,
2.514698,-0.1218,-0.1067,-0.6759,55.75351501,48.74237753,0.00000000,
2.576046,-0.1218,-0.1067,-0.6759,55.75351501,48.74237753,0.00000000,
2.578018,-0.1218,-0.1067,-0.6759,55.75351501,48.74237753,0.00000000,
2.579593,-0.1218,-0.1067,-0.6759,55.75351501,48.74237753,0.00000000,
2.585796,-0.1218,-0.1067,-0.6759,55.75351501,48.74237753,0.00000000,
2.587535,-0.1218,-0.1067,-0.6759,55.75351501,48.74237753,0.00000000,
2.588697,-0.5123,-0.0986,1.5915,55.75351501,48.74237753,0.00000000,
2.642982,-0.5123,-0.0986,1.5915,55.75351501,48.74237753,0.00000000,
2.645146,-0.5123,-0.0986,1.5915,55.75351501,48.74237753,0.00000000,
2.646408,-0.5123,-0.0986,1.5915,55.75351501,48.74237753,0.00000000,
2.652271,-0.5123,-0.0986,1.5915,55.75351501,48.74237753,0.00000000,
2.654354,0.7873,0.9469,0.2056,55.75351501,48.74237753,0.00000000,
2.677060,0.7873,0.9469,0.2056,55.75351501,48.74237753,0.00000000,
2.709032,0.7873,0.9469,0.2056,55.75351501,48.74237753,0.00000000,
2.709878,0.7873,0.9469,0.2056,55.75351501,48.74237753,0.00000000,
2.719172,0.7873,0.9469,0.2056,55.75351501,48.74237753,0.00000000,
2.720299,0.7873,0.9469,0.2056,55.75351501,48.74237753,0.00000000,
2.721243,0.6599,0.8704,1.6737,55.75351501,48.74237753,0.00000000,
2.775947,0.6599,0.8704,1.6737,55.75351501,48.74237753,0.00000000,
2.777281,0.6599,0.8704,1.6737,55.75351501,48.74237753,0.00000000,
2.787946,0.6599,0.8704,1.6737,55.75351501,48.74237753,0.00000000,
2.789271,1.7830,0.6515,-0.1290,55.75351501,48.74237753,0.00000000,
2.792018,1.7830,0.6515,-0.1290,55.75351501,48.74237753,0.00000000,
2.842457,1.7830,0.6515,-0.1290,55.75351501,48.74237753,0.00000000,
2.844561,1.7830,0.6515,-0.1290,55.75351501,48.74237753,0.00000000,
2.845521,1.7830,0.6515,-0.1290,55.75351501,48.74237753,0.00000000,
2.856024,3.5649,-1.9366,1.5114,55.75351501,48.74237753,0.00000000,
2.858004,3.5649,-1.9366,1.5114,55.75351501,48.74237753,0.00000000,
2.858765,3.5649,-1.9366,1.5114,55.75351501,48.74237753,0.00000000,
2.909601,3.5649,-1.9366,1.5114,55.75351501,48.74237753,0.00000000,
2.911344,3.5649,-1.9366,1.5114,55.75351501,48.74237753,0.00000000,
2.925300,3.5649,-1.9366,1.5114,55.75351501,48.74237753,0.00000000,
2.927130,3.5649,-1.9366,1.5114,55.75351501,48.74237753,0.00000000,
2.928295,-1.3325,-1.7780,-2.2273,55.75351501,48.74237753,0.00000000,
2.975566,-1.3325,-1.7780,-2.2273,55.75351501,48.74237753,0.00000000,
2.977405,-1.3325,-1.7780,-2.2273,55.75351501,48.74237753,0.00000000,
2.978475,-1.3325,-1.7780,-2.2273,55.75351501,48.74237753,0.00000000,
2.993697,-1.3325,-1.7780,-2.2273,55.75351501,48.74237753,0.00000000,
2.995774,1.0945,-1.5761,0.1465,55.75351501,48.74237753,0.00000000,
2.997196,1.0945,-1.5761,0.1465,55.75351501,48.74237753,0.00000000,
3.034137,1.0945,-1.5761,0.1465,55.75351501,48.74237753,0.00000000,
3.036295,1.0945,-1.5761,0.1465,55.75351501,48.74237753,0.00000000,
3.062373,1.0945,-1.5761,0.1465,55.75351501,48.74237753,0.00000000,
3.064339,-0.4055,-1.1931,-0.0212,55.75351501,48.74237753,0.00000000,
3.066878,-0.4055,-1.1931,-0.0212,55.75351501,48.74237753,0.00000000,
3.108871,-0.4055,-1.1931,-0.0212,55.75351501,48.74237753,0.00000000,
3.110984,-0.4055,-1.1931,-0.0212,55.75351501,48.74237753,0.00000000,
3.130641,-0.4055,-1.1931,-0.0212,55.75351501,48.74237753,0.00000000,
3.132170,-0.4055,-1.1931,-0.0212,55.75351501,48.74237753,0.00000000,
3.133556,-0.4055,-1.1931,-0.0212,55.75351501,48.74237753,0.00000000,
3.134898,0.6952,0.0477,-0.6727,55.75351501,48.74237753,0.00000000,
3.175565,0.6952,0.0477,-0.6727,55.75351501,48.74237753,0.00000000,
3.176950,0.6952,0.0477,-0.6727,55.75351501,48.74237753,0.00000000,
3.201622,0.6952,0.0477,-0.6727,55.75351501,48.74237753,0.00000000,
3.203205,0.6952,0.0477,-0.6727,55.75351501,48.74237753,0.00000000,
3.204405,-0.1445,0.6922,-0.3457,55.75351501,48.74237753,0.00000000,
3.242191,-0.1445,0.6922,-0.3457,55.75351501,48.74237753,0.00000000,
3.244156,-0.1445,0.6922,-0.3457,55.75351501,48.74237753,0.00000000,
3.268273,-0.1445,0.6922,-0.3457,55.75351501,48.74237753,0.00000000,
3.269986,-0.1445,0.6922,-0.3457,55.75351501,48.74237753,0.00000000,
3.271102,-0.3401,1.9886,-0.0376,55.75351501,48.74237753,0.00000000,
3.272576,-0.3401,1.9886,-0.0376,55.75351501,48.74237753,0.00000000,
3.309101,-0.3401,1.9886,-0.0376,55.75351501,48.74237753,0.00000000,
3.311509,-0.3401,1.9886,-0.0376,55.75351501,48.74237753,0.00000000,
3.337384,-0.3401,1.9886,-0.0376,55.75351501,48.74237753,0.00000000,
3.339340,-0.3401,1.9886,-0.0376,55.75351501,48.74237753,0.00000000,
3.340840,-0.3235,3.3609,0.3906,55.75351501,48.74237753,0.00000000,
3.376196,-0.3235,3.3609,0.3906,55.75351501,48.74237753,0.00000000,
3.378698,-0.3235,3.3609,0.3906,55.75351501,48.74237753,0.00000000,
3.404897,-0.3235,3.3609,0.3906,55.75351501,48.74237753,0.00000000,
3.406186,-0.3235,3.3609,0.3906,55.75351501,48.74237753,0.00000000,
3.406856,0.7024,-0.1448,3.9297,55.75351501,48.74237753,0.00000000,
3.407803,0.7024,-0.1448,3.9297,55.75351501,48.74237753,0.00000000,
3.441749,0.7024,-0.1448,3.9297,55.75351501,48.74237753,0.00000000,
3.473878,0.7024,-0.1448,3.9297,55.75351501,48.74237753,0.00000000,
3.476093,0.7024,-0.1448,3.9297,55.75351501,48.74237753,0.00000000,
3.477317,-2.4231,-1.1761,-0.2026,55.75351501,48.74237753,0.00000000,
3.479851,-2.4231,-1.1761,-0.2026,55.75351501,48.74237753,0.00000000,
3.508926,-2.4231,-1.1761,-0.2026,55.75351501,48.74237753,0.00000000,
3.511123,-2.4231,-1.1761,-0.2026,55.75351501,48.74237753,0.00000000,
3.542480,-2.4231,-1.1761,-0.2026,55.75351501,48.74237753,0.00000000,
3.545396,-2.4231,-1.1761,-0.2026,55.75351501,48.74237753,0.00000000,
3.546881,-1.9449,-1.0974,-0.4646,55.75351501,48.74237753,0.00000000,
3.548786,-1.9449,-1.0974,-0.4646,55.75351501,48.74237753,0.00000000,
3.576498,-1.9449,-1.0974,-0.4646,55.75351501,48.74237753,0.00000000,
3.611641,-1.9449,-1.0974,-0.4646,55.75351501,48.74237753,0.00000000,
3.615549,-0.1118,-1.1289,0.7543,55.75351501,48.74237753,0.00000000,
3.618165,-0.1118,-1.1289,0.7543,55.75351501,48.74237753,0.00000000,
3.619852,-0.1118,-1.1289,0.7543,55.75351501,48.74237753,0.00000000,
3.642353,-0.1118,-1.1289,0.7543,55.75351501,48.74237753,0.00000000,
3.644291,-0.1118,-1.1289,0.7543,55.75351501,48.74237753,0.00000000,
3.681027,-0.1118,-1.1289,0.7543,55.75351501,48.74237753,0.00000000,
3.684523,-0.1118,-1.1289,0.7543,55.75351501,48.74237753,0.00000000,
3.686390,-0.0768,-1.1344,-0.9654,55.75351501,48.74237753,0.00000000,
3.689107,-0.0768,-1.1344,-0.9654,55.75351501,48.74237753,0.00000000,
3.716318,-0.0768,-1.1344,-0.9654,55.75351501,48.74237753,0.00000000,
3.748290,-0.0768,-1.1344,-0.9654,55.75351501,48.74237753,0.00000000,
3.750828,0.3561,-0.5795,-0.5081,55.75351501,48.74237753,0.00000000,
3.752714,0.3561,-0.5795,-0.5081,55.75351501,48.74237753,0.00000000,
3.754627,0.3561,-0.5795,-0.5081,55.75351501,48.74237753,0.00000000,
3.781351,0.3561,-0.5795,-0.5081,55.75351501,48.74237753,0.00000000,
3.817700,0.3561,-0.5795,-0.5081,55.75351501,48.74237753,0.00000000,
3.821240,0.3561,-0.5795,-0.5081,55.75351501,48.74237753,0.00000000,
3.824343,0.3561,-0.5795,-0.5081,55.75351501,48.74237753,0.00000000,
3.826169,-0.4638,0.7559,-0.3659,55.75351501,48.74237753,0.00000000,
3.828955,-0.4638,0.7559,-0.3659,55.75351501,48.74237753,0.00000000,
3.843967,-0.4638,0.7559,-0.3659,55.75351501,48.74237753,0.00000000,
3.884966,-0.4638,0.7559,-0.3659,55.75351501,48.74237753,0.00000000,
3.887317,-0.4638,0.7559,-0.3659,55.75351501,48.74237753,0.00000000,
3.888037,-0.4638,0.7559,-0.3659,55.75351501,48.74237753,0.00000000,
3.888599,-0.0102,1.7734,1.8946,55.75351501,48.74237753,0.00000000,
3.908454,-0.0102,1.7734,1.8946,55.75351501,48.74237753,0.00000000,
3.955214,-0.0102,1.7734,1.8946,55.75351501,48.74237753,0.00000000,
3.957999,-0.0102,1.7734,1.8946,55.75351501,48.74237753,0.00000000,
3.959735,-0.0102,1.7734,1.8946,55.75351501,48.74237753,0.00000000,
3.961187,-0.0102,1.7734,1.8946,55.75351501,48.74237753,0.00000000,
3.962549,1.0178,1.8836,1.0990,55.75351501,48.74237753,0.00000000,
3.980280,1.0178,1.8836,1.0990,55.75351501,48.74237753,0.00000000,
4.023848,1.0178,1.8836,1.0990,55.75351501,48.74237753,0.00000000,
4.026042,1.0178,1.8836,1.0990,55.75351501,48.74237753,0.00000000,
4.027063,1.0178,1.8836,1.0990,55.75351501,48.74237753,0.00000000,
4.028042,2.1369,-2.6408,3.2268,55.75351501,48.74237753,0.00000000,
4.051980,2.1369,-2.6408,3.2268,55.75351501,48.74237753,0.00000000,
4.090874,2.1369,-2.6408,3.2268,55.75351501,48.74237753,0.00000000,
4.092227,2.1369,-2.6408,3.2268,55.75351501,48.74237753,0.00000000,
4.092990,2.1369,-2.6408,3.2268,55.75351501,48.74237753,0.00000000,
4.093603,2.1369,-2.6408,3.2268,55.75351501,48.74237753,0.00000000,
4.094214,-0.2678,-2.2905,-2.9013,55.75351501,48.74237753,0.00000000,
4.160577,1.3724,-1.5688,-1.4900,55.75351501,48.74237753,0.00000000,
4.165205,1.3724,-1.5688,-1.4900,55.75351501,48.74237753,0.00000000,
4.167211,1.3724,-1.5688,-1.4900,55.75351501,48.74237753,0.00000000,
4.169022,1.3724,-1.5688,-1.4900,55.75351501,48.74237753,0.00000000,
4.170659,1.3724,-1.5688,-1.4900,55.75351501,48.74237753,0.00000000,
4.186967,1.3724,-1.5688,-1.4900,55.75351501,48.74237753,0.00000000,
4.228805,1.3724,-1.5688,-1.4900,55.75351501,48.74237753,0.00000000,
4.231398,1.3724,-1.5688,-1.4900,55.75351501,48.74237753,0.00000000,
4.232671,1.3724,-1.5688,-1.4900,55.75351501,48.74237753,0.00000000,
4.234339,0.7571,-0.9478,-0.1396,55.75351501,48.74237753,0.00000000,
4.236132,0.7571,-0.9478,-0.1396,55.75351501,48.74237753,0.00000000,
4.297035,0.7571,-0.9478,-0.1396,55.75351501,48.74237753,0.00000000,
4.299184,0.2477,0.2060,0.1158,55.75351501,48.74237753,0.00000000,
4.300067,0.2477,0.2060,0.1158,55.75351501,48.74237753,0.00000000,
4.300646,0.2477,0.2060,0.1158,55.75351501,48.74237753,0.00000000,
4.301054,0.2477,0.2060,0.1158,55.75351501,48.74237753,0.00000000,
4.310358,0.2477,0.2060,0.1158,55.75351501,48.74237753,0.00000000,
4.325826,0.2477,0.2060,0.1158,55.75351501,48.74237753,0.00000000,
4.365306,0.2477,0.2060,0.1158,55.75351501,48.74237753,0.00000000,
4.366430,0.2477,0.2060,0.1158,55.75351501,48.74237753,0.00000000,
4.366820,0.2477,0.2060,0.1158,55.75351501,48.74237753,0.00000000,
4.367145,-0.8295,0.7976,-0.3892,55.75351501,48.74237753,0.00000000,
4.435789,-0.8295,0.7976,-0.3892,55.75351501,48.74237753,0.00000000,
4.439055,-0.8295,0.7976,-0.3892,55.75351501,48.74237753,0.00000000,
4.440892,-0.8295,0.7976,-0.3892,55.75351501,48.74237753,0.00000000,
4.443458,-0.8295,0.7976,-0.3892,55.75351501,48.74237753,0.00000000,
4.445350,-0.9776,0.5645,0.9610,55.75351501,48.74237753,0.00000000,
4.503903,-0.9776,0.5645,0.9610,55.75351501,48.74237753,0.00000000,
4.506844,-0.7092,1.9522,0.7213,55.75351501,48.74237753,0.00000000,
4.509443,-0.7092,1.9522,0.7213,55.75351501,48.74237753,0.00000000,
4.510945,-0.7092,1.9522,0.7213,55.75351501,48.74237753,0.00000000,
4.512343,-0.7092,1.9522,0.7213,55.75351501,48.74237753,0.00000000,
4.514042,-0.7092,1.9522,0.7213,55.75351501,48.74237753,0.00000000,
4.571466,-0.7092,1.9522,0.7213,55.75351501,48.74237753,0.00000000,
4.573774,-0.7092,1.9522,0.7213,55.75351501,48.74237753,0.00000000,
4.574797,-0.7092,1.9522,0.7213,55.75351501,48.74237753,0.00000000,
4.575657,-0.7092,1.9522,0.7213,55.75351501,48.74237753,0.00000000,
4.576467,-0.4077,0.3882,2.9617,55.75351501,48.74237753,0.00000000,
4.592210,-0.4077,0.3882,2.9617,55.75351501,48.74237753,0.00000000,
4.640286,-0.4077,0.3882,2.9617,55.75351501,48.74237753,0.00000000,
4.642539,-0.4077,0.3882,2.9617,55.75351501,48.74237753,0.00000000,
4.644116,-0.4077,0.3882,2.9617,55.75351501,48.74237753,0.00000000,
4.645269,-0.4077,0.3882,2.9617,55.75351501,48.74237753,0.00000000,
4.646304,-2.2886,-1.3923,0.3121,55.75351501,48.74237753,0.00000000,
4.709656,-2.2886,-1.3923,0.3121,55.75351501,48.74237753,0.00000000,
4.713542,-0.1368,-0.9267,-0.9639,55.75351501,48.74237753,0.00000000,
4.717020,-0.1368,-0.9267,-0.9639,55.75351501,48.74237753,0.00000000,
4.719154,-0.1368,-0.9267,-0.9639,55.75351501,48.74237753,0.00000000,
4.721184,-0.1368,-0.9267,-0.9639,55.75351501,48.74237753,0.00000000,
4.776669,-0.1368,-0.9267,-0.9639,55.75351501,48.74237753,0.00000000,
4.779785,-0.1368,-0.9267,-0.9639,55.75351501,48.74237753,0.00000000,
4.781795,-0.1368,-0.9267,-0.9639,55.75351501,48.74237753,0.00000000,
4.784102,-0.1368,-0.9267,-0.9639,55.75351501,48.74237753,0.00000000,
4.786173,0.4747,-1.1222,-0.8030,55.75351501,48.74237753,0.00000000,
4.788517,0.4747,-1.1222,-0.8030,55.75351501,48.74237753,0.00000000,
4.842460,0.4747,-1.1222,-0.8030,55.75351501,48.74237753,0.00000000,
4.845171,0.4747,-1.1222,-0.8030,55.75351501,48.74237753,0.00000000,
4.846732,0.4747,-1.1222,-0.8030,55.75351501,48.74237753,0.00000000,
4.848291,0.4747,-1.1222,-0.8030,55.75351501,48.74237753,0.00000000,
4.849708,-0.0402,-0.7985,-1.1912,55.75351501,48.74237753,0.00000000,
4.908510,-0.0402,-0.7985,-1.1912,55.75351501,48.74237753,0.00000000,
4.910381,-0.0402,-0.7985,-1.1912,55.75351501,48.74237753,0.00000000,
4.911268,-0.0402,-0.7985,-1.1912,55.75351501,48.74237753,0.00000000,
4.914200,-0.0402,-0.7985,-1.1912,55.75351501,48.74237753,0.00000000,
4.915344,-1.1175,-0.0021,-0.5633,55.75351501,48.74237753,0.00000000,
4.916436,-1.1175,-0.0021,-0.5633,55.75351501,48.74237753,0.00000000,
4.973149,-1.1175,-0.0021,-0.5633,55.75351501,48.74237753,0.00000000,
4.974700,-1.1175,-0.0021,-0.5633,55.75351501,48.74237753,0.00000000,
4.975396,-1.1175,-0.0021,-0.5633,55.75351501,48.74237753,0.00000000,
4.982386,-1.1175,-0.0021,-0.5633,55.75351501,48.74237753,0.00000000,
4.983798,-0.3650,1.0285,1.0351,55.75351501,48.74237753,0.00000000,
5.034368,-0.3650,1.0285,1.0351,55.75351501,48.74237753,0.00000000,
5.036735,-0.3650,1.0285,1.0351,55.75351501,48.74237753,0.00000000,
5.038300,-0.3650,1.0285,1.0351,55.75351501,48.74237753,0.00000000,
5.052176,-0.3650,1.0285,1.0351,55.75351501,48.74237753,0.00000000,
5.055409,-0.3650,1.0285,1.0351,55.75351501,48.74237753,0.00000000,
5.056956,-0.0187,1.1891,0.7032,55.75351501,48.74237753,0.00000000,
5.108744,-0.0187,1.1891,0.7032,55.75351501,48.74237753,0.00000000,
5.110316,-0.0187,1.1891,0.7032,55.75351501,48.74237753,0.00000000,
5.121326,-0.0187,1.1891,0.7032,55.75351501,48.74237753,0.00000000,
5.123104,1.6181,0.8234,0.4099,55.75351501,48.74237753,0.00000000,
5.124665,1.6181,0.8234,0.4099,55.75351501,48.74237753,0.00000000,
5.175792,1.6181,0.8234,0.4099,55.75351501,48.74237753,0.00000000,
5.177535,1.6181,0.8234,0.4099,55.75351501,48.74237753,0.00000000,
5.178930,1.6181,0.8234,0.4099,55.75351501,48.74237753,0.00000000,
5.189572,1.6181,0.8234,0.4099,55.75351501,48.74237753,0.00000000,
5.191456,1.6181,0.8234,0.4099,55.75351501,48.74237753,0.00000000,
5.192376,0.8473,-2.4487,3.2207,55.75351501,48.74237753,0.00000000,
5.241697,0.8473,-2.4487,3.2207,55.75351501,48.74237753,0.00000000,
5.242605,0.8473,-2.4487,3.2207,55.75351501,48.74237753,0.00000000,
5.256994,0.8473,-2.4487,3.2207,55.75351501,48.74237753,0.00000000,
5.257939,0.8473,-2.4487,3.2207,55.75351501,48.74237753,0.00000000,
5.258544,-0.7089,-1.5438,-2.3669,55.75351501,48.74237753,0.00000000,
5.308389,-0.7089,-1.5438,-2.3669,55.75351501,48.74237753,0.00000000,
5.309584,-0.7089,-1.5438,-2.3669,55.75351501,48.74237753,0.00000000,
5.310249,-0.7089,-1.5438,-2.3669,55.75351501,48.74237753,0.00000000,
5.325840,-0.7089,-1.5438,-2.3669,55.75351501,48.74237753,0.00000000,
5.327096,-0.7089,-1.5438,-2.3669,55.75351501,48.74237753,0.00000000,
5.327766,1.0335,-0.7549,-0.0045,55.75351501,48.74237753,0.00000000,
5.376004,1.0335,-0.7549,-0.0045,55.75351501,48.74237753,0.00000000,
5.378595,1.0335,-0.7549,-0.0045,55.75351501,48.74237753,0.00000000,
5.395664,1.0335,-0.7549,-0.0045,55.75351501,48.74237753,0.00000000,
5.398064,1.4592,-0.1236,-1.5166,55.75351501,48.74237753,0.00000000,
5.400150,1.4592,-0.1236,-1.5166,55.75351501,48.74237753,0.00000000,
5.442871,1.4592,-0.1236,-1.5166,55.75351501,48.74237753,0.00000000,
5.445979,1.4592,-0.1236,-1.5166,55.75351501,48.74237753,0.00000000,
5.463607,1.4592,-0.1236,-1.5166,55.75351501,48.74237753,0.00000000,
5.465847,1.4592,-0.1236,-1.5166,55.75351501,48.74237753,0.00000000,
5.467106,0.1229,-0.1386,-1.3768,55.75351501,48.74237753,0.00000000,
5.468748,0.1229,-0.1386,-1.3768,55.75351501,48.74237753,0.00000000,
5.509530,0.1229,-0.1386,-1.3768,55.75351501,48.74237753,0.00000000,
5.512587,0.1229,-0.1386,-1.3768,55.75351501,48.74237753,0.00000000,
5.533143,0.1229,-0.1386,-1.3768,55.75351501,48.74237753,0.00000000,
5.535093,-0.7083,0.4853,-0.5581,55.75351501,48.74237753,0.00000000,
5.536472,-0.7083,0.4853,-0.5581,55.75351501,48.74237753,0.00000000,
5.546359,-0.7083,0.4853,-0.5581,55.75351501,48.74237753,0.00000000,
5.575737,-0.7083,0.4853,-0.5581,55.75351501,48.74237753,0.00000000,
5.601243,-0.7083,0.4853,-0.5581,55.75351501,48.74237753,0.00000000,
5.604285,-0.7083,0.4853,-0.5581,55.75351501,48.74237753,0.00000000,
5.606006,-1.6808,-0.3778,2.3610,55.75351501,48.74237753,0.00000000,
5.608443,-1.6808,-0.3778,2.3610,55.75351501,48.74237753,0.00000000,
5.642658,-1.6808,-0.3778,2.3610,55.75351501,48.74237753,0.00000000,
5.646684,-1.6808,-0.3778,2.3610,55.75351501,48.74237753,0.00000000,
5.668897,-1.6808,-0.3778,2.3610,55.75351501,48.74237753,0.00000000,
5.670817,2.5321,3.1474,2.0678,55.75351501,48.74237753,0.00000000,
5.672045,2.5321,3.1474,2.0678,55.75351501,48.74237753,0.00000000,
5.709911,2.5321,3.1474,2.0678,55.75351501,48.74237753,0.00000000,
5.711711,2.5321,3.1474,2.0678,55.75351501,48.74237753,0.00000000,
5.738005,2.5321,3.1474,2.0678,55.75351501,48.74237753,0.00000000,
5.740346,2.5321,3.1474,2.0678,55.75351501,48.74237753,0.00000000,
5.741183,2.5321,3.1474,2.0678,55.75351501,48.74237753,0.00000000,
5.741782,-2.3078,-0.1542,-0.9255,55.75351501,48.74237753,0.00000000,
5.775184,-2.3078,-0.1542,-0.9255,55.75351501,48.74237753,0.00000000,
5.807154,-2.3078,-0.1542,-0.9255,55.75351501,48.74237753,0.00000000,
5.809705,-2.3078,-0.1542,-0.9255,55.75351501,48.74237753,0.00000000,
5.811069,-2.3078,-0.1542,-0.9255,55.75351501,48.74237753,0.00000000,
5.812453,-0.9656,-0.2973,0.9898,55.75351501,48.74237753,0.00000000,
5.843113,-0.9656,-0.2973,0.9898,55.75351501,48.74237753,0.00000000,
5.846102,-0.9656,-0.2973,0.9898,55.75351501,48.74237753,0.00000000,
5.875468,-0.9656,-0.2973,0.9898,55.75351501,48.74237753,0.00000000,
5.878117,-0.9656,-0.2973,0.9898,55.75351501,48.74237753,0.00000000,
5.879651,-0.9656,-0.2973,0.9898,55.75351501,48.74237753,0.00000000,
5.881091,-0.2753,0.1650,-0.7049,55.75351501,48.74237753,0.00000000,
5.908763,-0.2753,0.1650,-0.7049,55.75351501,48.74237753,0.00000000,
5.943825,-0.2753,0.1650,-0.7049,55.75351501,48.74237753,0.00000000,
5.945697,-0.2753,0.1650,-0.7049,55.75351501,48.74237753,0.00000000,
5.946632,-0.2753,0.1650,-0.7049,55.75351501,48.74237753,0.00000000,
5.947489,-0.0011,-0.5651,2.2104,55.75351501,48.74237753,0.00000000,
5.975870,-0.0011,-0.5651,2.2104,55.75351501,48.74237753,0.00000000,
5.978147,-0.0011,-0.5651,2.2104,55.75351501,48.74237753,0.00000000,
6.012219,-0.0011,-0.5651,2.2104,55.75351501,48.74237753,0.00000000,
6.015325,-0.0011,-0.5651,2.2104,55.75351501,48.74237753,0.00000000,
6.017349,-0.0011,-0.5651,2.2104,55.75351501,48.74237753,0.00000000,
6.019424,-1.4754,-0.5698,-0.4546,55.75351501,48.74237753,0.00000000,
6.036724,-1.4754,-0.5698,-0.4546,55.75351501,48.74237753,0.00000000,
6.080937,-1.4754,-0.5698,-0.4546,55.75351501,48.74237753,0.00000000,
6.083746,-1.4754,-0.5698,-0.4546,55.75351501,48.74237753,0.00000000,
6.085256,-1.4754,-0.5698,-0.4546,55.75351501,48.74237753,0.00000000,
6.086479,-0.3587,0.5506,-0.7859,55.75351501,48.74237753,0.00000000,
6.108835,-0.3587,0.5506,-0.7859,55.75351501,48.74237753,0.00000000,
6.150475,-0.3587,0.5506,-0.7859,55.75351501,48.74237753,0.00000000,
6.153800,0.1588,0.2033,0.5780,55.75351501,48.74237753,0.00000000,
6.155788,0.1588,0.2033,0.5780,55.75351501,48.74237753,0.00000000,
6.157100,0.1588,0.2033,0.5780,55.75351501,48.74237753,0.00000000,
6.158227,0.1588,0.2033,0.5780,55.75351501,48.74237753,0.00000000,
6.175472,0.1588,0.2033,0.5780,55.75351501,48.74237753,0.00000000,
6.219173,0.1588,0.2033,0.5780,55.75351501,48.74237753,0.00000000,
6.221270,0.1588,0.2033,0.5780,55.75351501,48.74237753,0.00000000,
6.222382,-0.8939,-0.4005,-1.1529,55.75351501,48.74237753,0.00000000,
6.226006,-0.8939,-0.4005,-1.1529,55.75351501,48.74237753,0.00000000,
6.254495,-0.8939,-0.4005,-1.1529,55.75351501,48.74237753,0.00000000,
6.286801,-0.8939,-0.4005,-1.1529,55.75351501,48.74237753,0.00000000,
6.288314,-0.8939,-0.4005,-1.1529,55.75351501,48.74237753,0.00000000,
6.289140,-0.8939,-0.4005,-1.1529,55.75351501,48.74237753,0.00000000,
6.289975,-0.8939,-0.4005,-1.1529,55.75351501,48.74237753,0.00000000,
6.291242,0.3890,-0.6409,0.1170,55.75351501,48.74237753,0.00000000,
6.309232,0.3890,-0.6409,0.1170,55.75351501,48.74237753,0.00000000,
6.356178,0.3890,-0.6409,0.1170,55.75351501,48.74237753,0.00000000,
6.358878,0.3890,-0.6409,0.1170,55.75351501,48.74237753,0.00000000,
6.360543,0.3890,-0.6409,0.1170,55.75351501,48.74237753,0.00000000,
6.362120,2.8453,-1.7178,2.9868,55.75351501,48.74237753,0.00000000,
6.375554,2.8453,-1.7178,2.9868,55.75351501,48.74237753,0.00000000,
6.424689,2.8453,-1.7178,2.9868,55.75351501,48.74237753,0.00000000,
6.427240,1.2884,-1.2541,-1.4237,55.75351501,48.74237753,0.00000000,
6.429840,1.2884,-1.2541,-1.4237,55.75351501,48.74237753,0.00000000,
6.431549,1.2884,-1.2541,-1.4237,55.75351501,48.74237753,0.00000000,
6.433604,1.2884,-1.2541,-1.4237,55.75351501,48.74237753,0.00000000,
6.454520,1.2884,-1.2541,-1.4237,55.75351501,48.74237753,0.00000000,
6.492551,1.2884,-1.2541,-1.4237,55.75351501,48.74237753,0.00000000,
6.495479,1.2884,-1.2541,-1.4237,55.75351501,48.74237753,0.00000000,
6.497003,1.1402,-0.5092,-1.7030,55.75351501,48.74237753,0.00000000,
6.499125,1.1402,-0.5092,-1.7030,55.75351501,48.74237753,0.00000000,
6.509362,1.1402,-0.5092,-1.7030,55.75351501,48.74237753,0.00000000,
6.562161,1.1402,-0.5092,-1.7030,55.75351501,48.74237753,0.00000000,
6.565085,1.1402,-0.5092,-1.7030,55.75351501,48.74237753,0.00000000,
6.566488,1.1402,-0.5092,-1.7030,55.75351501,48.74237753,0.00000000,
6.567734,1.1402,-0.5092,-1.7030,55.75351501,48.74237753,0.00000000,
6.568929,0.2711,-0.3042,0.0393,55.75351501,48.74237753,0.00000000,
6.629708,0.2711,-0.3042,0.0393,55.75351501,48.74237753,0.00000000,
6.631843,0.2711,-0.3042,0.0393,55.75351501,48.74237753,0.00000000,
6.633198,0.2711,-0.3042,0.0393,55.75351501,48.74237753,0.00000000,
6.634618,0.2711,-0.3042,0.0393,55.75351501,48.74237753,0.00000000,
6.635837,-0.6597,0.2697,-0.8023,55.75351501,48.74237753,0.00000000,
6.645879,-0.6597,0.2697,-0.8023,55.75351501,48.74237753,0.00000000,
6.699421,-0.6597,0.2697,-0.8023,55.75351501,48.74237753,0.00000000,
6.702681,-0.3459,0.9495,0.8461,55.75351501,48.74237753,0.00000000,
6.705124,-0.3459,0.9495,0.8461,55.75351501,48.74237753,0.00000000,
6.706627,-0.3459,0.9495,0.8461,55.75351501,48.74237753,0.00000000,
6.707983,-0.3459,0.9495,0.8461,55.75351501,48.74237753,0.00000000,
6.768173,-0.3459,0.9495,0.8461,55.75351501,48.74237753,0.00000000,
6.770838,-0.4992,0.9484,0.6580,55.75351501,48.74237753,0.00000000,
6.773821,-0.4992,0.9484,0.6580,55.75351501,48.74237753,0.00000000,
6.775341,-0.4992,0.9484,0.6580,55.75351501,48.74237753,0.00000000,
6.776786,-0.4992,0.9484,0.6580,55.75351501,48.74237753,0.00000000,
6.778276,-0.4992,0.9484,0.6580,55.75351501,48.74237753,0.00000000,
6.836806,-0.4992,0.9484,0.6580,55.75351501,48.74237753,0.00000000,
6.839683,-0.4992,0.9484,0.6580,55.75351501,48.74237753,0.00000000,
6.841288,-0.4992,0.9484,0.6580,55.75351501,48.74237753,0.00000000,
6.842753,-1.2733,1.1083,-0.2356,55.75351501,48.74237753,0.00000000,
6.846010,-1.2733,1.1083,-0.2356,55.75351501,48.74237753,0.00000000,
6.905426,-1.2733,1.1083,-0.2356,55.75351501,48.74237753,0.00000000,
6.908968,-1.2733,1.1083,-0.2356,55.75351501,48.74237753,0.00000000,
6.910963,-1.2733,1.1083,-0.2356,55.75351501,48.74237753,0.00000000,
6.913108,-1.2733,1.1083,-0.2356,55.75351501,48.74237753,0.00000000,
6.915304,-0.6397,0.0695,0.4543,55.75351501,48.74237753,0.00000000,
6.974016,-0.6397,0.0695,0.4543,55.75351501,48.74237753,0.00000000,
6.977921,-2.4651,-1.5065,1.2660,55.75351501,48.74237753,0.00000000,
6.981497,-2.4651,-1.5065,1.2660,55.75351501,48.74237753,0.00000000,
6.983847,-2.4651,-1.5065,1.2660,55.75351501,48.74237753,0.00000000,
6.985630,-2.4651,-1.5065,1.2660,55.75351501,48.74237753,0.00000000,
6.987313,-2.4651,-1.5065,1.2660,55.75351501,48.74237753,0.00000000,
7.034969,-2.4651,-1.5065,1.2660,55.75351501,48.74237753,0.00000000,
7.038018,-2.4651,-1.5065,1.2660,55.75351501,48.74237753,0.00000000,
7.039901,-2.4651,-1.5065,1.2660,55.75351501,48.74237753,0.00000000,
7.041811,-2.4651,-1.5065,1.2660,55.75351501,48.74237753,0.00000000,
7.043859,-0.9270,-0.1718,-0.2513,55.75351501,48.74237753,0.00000000,
7.110331,-0.9270,-0.1718,-0.2513,55.75351501,48.74237753,0.00000000,
7.113991,-0.9270,-0.1718,-0.2513,55.75351501,48.74237753,0.00000000,
7.116070,-0.9270,-0.1718,-0.2513,55.75351501,48.74237753,0.00000000,
7.118075,-0.9270,-0.1718,-0.2513,55.75351501,48.74237753,0.00000000,
7.119951,-0.9270,-0.1718,-0.2513,55.75351501,48.74237753,0.00000000,
7.121873,0.8789,0.0597,0.8291,55.75351501,48.74237753,0.00000000,
7.176160,0.8789,0.0597,0.8291,55.75351501,48.74237753,0.00000000,
7.178345,0.8789,0.0597,0.8291,55.75351501,48.74237753,0.00000000,
7.179500,0.8789,0.0597,0.8291,55.75351501,48.74237753,0.00000000,
7.180657,0.8789,0.0597,0.8291,55.75351501,48.74237753,0.00000000,
7.181783,0.7702,-0.0509,-0.0826,55.75351501,48.74237753,0.00000000,
7.243010,0.7702,-0.0509,-0.0826,55.75351501,48.74237753,0.00000000,
7.247101,0.7702,-0.0509,-0.0826,55.75351501,48.74237753,0.00000000,
7.249340,0.7702,-0.0509,-0.0826,55.75351501,48.74237753,0.00000000,
7.251434,0.7702,-0.0509,-0.0826,55.75351501,48.74237753,0.00000000,
7.253645,0.7702,-0.0509,-0.0826,55.75351501,48.74237753,0.00000000,
7.255657,0.6785,0.2261,-0.9648,55.75351501,48.74237753,0.00000000,
7.308824,0.6785,0.2261,-0.9648,55.75351501,48.74237753,0.00000000,
7.310821,0.6785,0.2261,-0.9648,55.75351501,48.74237753,0.00000000,
7.311894,0.6785,0.2261,-0.9648,55.75351501,48.74237753,0.00000000,
7.316305,0.6785,0.2261,-0.9648,55.75351501,48.74237753,0.00000000,
7.318424,0.6529,0.3322,0.1985,55.75351501,48.74237753,0.00000000,
7.376249,0.6529,0.3322,0.1985,55.75351501,48.74237753,0.00000000,
7.378322,0.6529,0.3322,0.1985,55.75351501,48.74237753,0.00000000,
7.379403,0.6529,0.3322,0.1985,55.75351501,48.74237753,0.00000000,
7.385208,0.6529,0.3322,0.1985,55.75351501,48.74237753,0.00000000,
7.386672,0.6529,0.3322,0.1985,55.75351501,48.74237753,0.00000000,
7.387745,1.4776,0.7680,1.6614,55.75351501,48.74237753,0.00000000,
7.424964,1.4776,0.7680,1.6614,55.75351501,48.74237753,0.00000000,
7.427089,1.4776,0.7680,1.6614,55.75351501,48.74237753,0.00000000,
7.444015,1.4776,0.7680,1.6614,55.75351501,48.74237753,0.00000000,
7.454748,1.4776,0.7680,1.6614,55.75351501,48.74237753,0.00000000,
7.456346,1.6091,0.4472,0.2121,55.75351501,48.74237753,0.00000000,
7.509854,1.6091,0.4472,0.2121,55.75351501,48.74237753,0.00000000,
7.512082,1.6091,0.4472,0.2121,55.75351501,48.74237753,0.00000000,
7.513459,1.6091,0.4472,0.2121,55.75351501,48.74237753,0.00000000,
7.522520,1.6091,0.4472,0.2121,55.75351501,48.74237753,0.00000000,
7.524376,1.6091,0.4472,0.2121,55.75351501,48.74237753,0.00000000,
7.525560,-0.5100,-3.3130,3.4455,55.75351501,48.74237753,0.00000000,
7.575614,-0.5100,-3.3130,3.4455,55.75351501,48.74237753,0.00000000,
7.577876,-0.5100,-3.3130,3.4455,55.75351501,48.74237753,0.00000000,
7.590797,-0.5100,-3.3130,3.4455,55.75351501,48.74237753,0.00000000,
7.592482,-0.5100,-3.3130,3.4455,55.75351501,48.74237753,0.00000000,
7.594127,0.0011,-1.9807,-2.0064,55.75351501,48.74237753,0.00000000,
7.642013,0.0011,-1.9807,-2.0064,55.75351501,48.74237753,0.00000000,
7.644960,0.0011,-1.9807,-2.0064,55.75351501,48.74237753,0.00000000,
7.646363,0.0011,-1.9807,-2.0064,55.75351501,48.74237753,0.00000000,
7.661208,0.0011,-1.9807,-2.0064,55.75351501,48.74237753,0.00000000,
7.664878,0.0011,-1.9807,-2.0064,55.75351501,48.74237753,0.00000000,
7.667289,0.3721,-1.0340,-1.9077,55.75351501,48.74237753,0.00000000,
7.709583,0.3721,-1.0340,-1.9077,55.75351501,48.74237753,0.00000000,
7.713810,0.3721,-1.0340,-1.9077,55.75351501,48.74237753,0.00000000,
7.728591,0.3721,-1.0340,-1.9077,55.75351501,48.74237753,0.00000000,
7.731624,0.3721,-1.0340,-1.9077,55.75351501,48.74237753,0.00000000,
7.734098,-0.7508,-0.7521,-1.4108,55.75351501,48.74237753,0.00000000,
7.776403,-0.7508,-0.7521,-1.4108,55.75351501,48.74237753,0.00000000,
7.778809,-0.7508,-0.7521,-1.4108,55.75351501,48.74237753,0.00000000,
7.780003,-0.7508,-0.7521,-1.4108,55.75351501,48.74237753,0.00000000,
7.797135,-0.7508,-0.7521,-1.4108,55.75351501,48.74237753,0.00000000,
7.800488,-0.7508,-0.7521,-1.4108,55.75351501,48.74237753,0.00000000,
7.803265,-0.5954,0.3261,-0.8112,55.75351501,48.74237753,0.00000000,
7.837117,-0.5954,0.3261,-0.8112,55.75351501,48.74237753,0.00000000,
7.840436,-0.5954,0.3261,-0.8112,55.75351501,48.74237753,0.00000000,
7.865115,-0.5954,0.3261,-0.8112,55.75351501,48.74237753,0.00000000,
7.867780,-0.5954,0.3261,-0.8112,55.75351501,48.74237753,0.00000000,
7.869263,-0.4650,1.3429,0.5109,55.75351501,48.74237753,0.00000000,
7.909354,-0.4650,1.3429,0.5109,55.75351501,48.74237753,0.00000000,
7.911896,-0.4650,1.3429,0.5109,55.75351501,48.74237753,0.00000000,
7.934916,-0.4650,1.3429,0.5109,55.75351501,48.74237753,0.00000000,
7.937599,-0.4650,1.3429,0.5109,55.75351501,48.74237753,0.00000000,
7.939258,-1.3626,1.3582,1.5271,55.75351501,48.74237753,0.00000000,
7.941527,-1.3626,1.3582,1.5271,55.75351501,48.74237753,0.00000000,
7.976440,-1.3626,1.3582,1.5271,55.75351501,48.74237753,0.00000000,
7.979105,-1.3626,1.3582,1.5271,55.75351501,48.74237753,0.00000000,
8.003236,-1.3626,1.3582,1.5271,55.75351501,48.74237753,0.00000000,
8.006129,-1.3626,1.3582,1.5271,55.75351501,48.74237753,0.00000000,
8.007798,-1.0797,2.6498,1.4188,55.75351501,48.74237753,0.00000000,
8.034887,-1.0797,2.6498,1.4188,55.75351501,48.74237753,0.00000000,
8.037775,-1.0797,2.6498,1.4188,55.75351501,48.74237753,0.00000000,
8.071912,-1.0797,2.6498,1.4188,55.75351501,48.74237753,0.00000000,
8.074874,-1.2514,-0.7888,3.4700,55.75351501,48.74237753,0.00000000,
8.078078,-1.2514,-0.7888,3.4700,55.75351501,48.74237753,0.00000000,
8.080065,-1.2514,-0.7888,3.4700,55.75351501,48.74237753,0.00000000,
8.109537,-1.2514,-0.7888,3.4700,55.75351501,48.74237753,0.00000000,
8.111549,-1.2514,-0.7888,3.4700,55.75351501,48.74237753,0.00000000,
8.139643,-1.2514,-0.7888,3.4700,55.75351501,48.74237753,0.00000000,
8.141867,-1.2514,-0.7888,3.4700,55.75351501,48.74237753,0.00000000,
8.143314,-1.3781,-0.8084,-2.4590,55.75351501,48.74237753,0.00000000,
8.176081,-1.3781,-0.8084,-2.4590,55.75351501,48.74237753,0.00000000,
8.180244,-1.3781,-0.8084,-2.4590,55.75351501,48.74237753,0.00000000,
8.207999,-1.3781,-0.8084,-2.4590,55.75351501,48.74237753,0.00000000,
8.210188,0.0837,-0.6760,-2.4105,55.75351501,48.74237753,0.00000000,
8.211776,0.0837,-0.6760,-2.4105,55.75351501,48.74237753,0.00000000,
8.212723,0.0837,-0.6760,-2.4105,55.75351501,48.74237753,0.00000000,
8.246377,0.0837,-0.6760,-2.4105,55.75351501,48.74237753,0.00000000,
8.276892,0.0837,-0.6760,-2.4105,55.75351501,48.74237753,0.00000000,
8.279483,0.0837,-0.6760,-2.4105,55.75351501,48.74237753,0.00000000,
8.280910,0.0837,-0.6760,-2.4105,55.75351501,48.74237753,0.00000000,
8.282087,0.6148,-1.1916,-0.0529,55.75351501,48.74237753,0.00000000,
8.309056,0.6148,-1.1916,-0.0529,55.75351501,48.74237753,0.00000000,
8.311574,0.6148,-1.1916,-0.0529,55.75351501,48.74237753,0.00000000,
8.346242,0.6148,-1.1916,-0.0529,55.75351501,48.74237753,0.00000000,
8.349533,-0.4584,-1.2872,-0.3206,55.75351501,48.74237753,0.00000000,
8.352352,-0.4584,-1.2872,-0.3206,55.75351501,48.74237753,0.00000000,
8.354972,-0.4584,-1.2872,-0.3206,55.75351501,48.74237753,0.00000000,
8.382771,-0.4584,-1.2872,-0.3206,55.75351501,48.74237753,0.00000000,
8.414038,-0.4584,-1.2872,-0.3206,55.75351501,48.74237753,0.00000000,
8.416565,-0.4584,-1.2872,-0.3206,55.75351501,48.74237753,0.00000000,
8.418031,0.6745,0.1460,0.5314,55.75351501,48.74237753,0.00000000,
8.419403,0.6745,0.1460,0.5314,55.75351501,48.74237753,0.00000000,
8.424678,0.6745,0.1460,0.5314,55.75351501,48.74237753,0.00000000,
8.444250,0.6745,0.1460,0.5314,55.75351501,48.74237753,0.00000000,
8.482562,0.6745,0.1460,0.5314,55.75351501,48.74237753,0.00000000,
8.484226,0.6745,0.1460,0.5314,55.75351501,48.74237753,0.00000000,
8.484990,1.0093,1.6870,0.0774,55.75351501,48.74237753,0.00000000,
8.486265,1.0093,1.6870,0.0774,55.75351501,48.74237753,0.00000000,
8.509224,1.0093,1.6870,0.0774,55.75351501,48.74237753,0.00000000,
8.551973,1.0093,1.6870,0.0774,55.75351501,48.74237753,0.00000000,
8.554463,1.0093,1.6870,0.0774,55.75351501,48.74237753,0.00000000,
8.555583,1.0093,1.6870,0.0774,55.75351501,48.74237753,0.00000000,
8.556706,0.4040,1.4560,1.3082,55.75351501,48.74237753,0.00000000,
8.576235,0.4040,1.4560,1.3082,55.75351501,48.74237753,0.00000000,
8.620739,0.4040,1.4560,1.3082,55.75351501,48.74237753,0.00000000,
8.623218,0.4040,1.4560,1.3082,55.75351501,48.74237753,0.00000000,
8.624572,1.0898,-1.1978,2.0518,55.75351501,48.74237753,0.00000000,
8.627116,1.0898,-1.1978,2.0518,55.75351501,48.74237753,0.00000000,
8.628586,1.0898,-1.1978,2.0518,55.75351501,48.74237753,0.00000000,
8.647450,1.0898,-1.1978,2.0518,55.75351501,48.74237753,0.00000000,
8.688534,1.0898,-1.1978,2.0518,55.75351501,48.74237753,0.00000000,
8.690757,1.0898,-1.1978,2.0518,55.75351501,48.74237753,0.00000000,
8.691769,1.0898,-1.1978,2.0518,55.75351501,48.74237753,0.00000000,
8.692647,0.3024,-3.0012,1.0596,55.75351501,48.74237753,0.00000000,
8.709060,0.3024,-3.0012,1.0596,55.75351501,48.74237753,0.00000000,
8.758005,0.3024,-3.0012,1.0596,55.75351501,48.74237753,0.00000000,
8.761007,0.3024,-3.0012,1.0596,55.75351501,48.74237753,0.00000000,
8.762898,0.3024,-3.0012,1.0596,55.75351501,48.74237753,0.00000000,
8.764804,0.3024,-3.0012,1.0596,55.75351501,48.74237753,0.00000000,
8.766631,1.5773,-0.7327,-2.9134,55.75351501,48.74237753,0.00000000,
8.776455,1.5773,-0.7327,-2.9134,55.75351501,48.74237753,0.00000000,
8.825824,1.5773,-0.7327,-2.9134,55.75351501,48.74237753,0.00000000,
8.828681,1.5773,-0.7327,-2.9134,55.75351501,48.74237753,0.00000000,
8.830153,1.5773,-0.7327,-2.9134,55.75351501,48.74237753,0.00000000,
8.831417,-0.4413,-1.9887,-0.7286,55.75351501,48.74237753,0.00000000,
8.842321,-0.4413,-1.9887,-0.7286,55.75351501,48.74237753,0.00000000,
8.895972,0.2612,-0.7269,-0.7813,55.75351501,48.74237753,0.00000000,
8.900331,0.2612,-0.7269,-0.7813,55.75351501,48.74237753,0.00000000,
8.901885,0.2612,-0.7269,-0.7813,55.75351501,48.74237753,0.00000000,
8.903520,0.2612,-0.7269,-0.7813,55.75351501,48.74237753,0.00000000,
8.905366,0.2612,-0.7269,-0.7813,55.75351501,48.74237753,0.00000000,
8.963575,0.2612,-0.7269,-0.7813,55.75351501,48.74237753,0.00000000,
8.966817,0.9722,0.8118,-0.1431,55.75351501,48.74237753,0.00000000,
8.969069,0.9722,0.8118,-0.1431,55.75351501,48.74237753,0.00000000,
8.970506,0.9722,0.8118,-0.1431,55.75351501,48.74237753,0.00000000,
8.971962,0.9722,0.8118,-0.1431,55.75351501,48.74237753,0.00000000,
8.973715,0.9722,0.8118,-0.1431,55.75351501,48.74237753,0.00000000,
9.031715,0.9722,0.8118,-0.1431,55.75351501,48.74237753,0.00000000,
9.034827,0.9722,0.8118,-0.1431,55.75351501,48.74237753,0.00000000,
9.036372,0.9722,0.8118,-0.1431,55.75351501,48.74237753,0.00000000,
9.037792,-1.3397,2.0544,-0.5728,55.75351501,48.74237753,0.00000000,
9.040364,-1.3397,2.0544,-0.5728,55.75351501,48.74237753,0.00000000,
9.100259,-1.3397,2.0544,-0.5728,55.75351501,48.74237753,0.00000000,
9.103141,-1.3397,2.0544,-0.5728,55.75351501,48.74237753,0.00000000,
9.104722,-1.3397,2.0544,-0.5728,55.75351501,48.74237753,0.00000000,
9.105912,-1.3397,2.0544,-0.5728,55.75351501,48.74237753,0.00000000,
9.106978,-2.0813,2.1663,3.6990,55.75351501,48.74237753,0.00000000,
9.108987,-2.0813,2.1663,3.6990,55.75351501,48.74237753,0.00000000,
9.169465,-2.0813,2.1663,3.6990,55.75351501,48.74237753,0.00000000,
9.172690,-2.0813,2.1663,3.6990,55.75351501,48.74237753,0.00000000,
9.176654,-0.6690,3.5672,0.3231,55.75351501,48.74237753,0.00000000,
9.179898,-0.6690,3.5672,0.3231,55.75351501,48.74237753,0.00000000,
9.181925,-0.6690,3.5672,0.3231,55.75351501,48.74237753,0.00000000,
9.237249,-0.6690,3.5672,0.3231,55.75351501,48.74237753,0.00000000,
9.240076,-2.0641,-2.0034,0.6887,55.75351501,48.74237753,0.00000000,
9.242337,-2.0641,-2.0034,0.6887,55.75351501,48.74237753,0.00000000,
9.246810,-2.0641,-2.0034,0.6887,55.75351501,48.74237753,0.00000000,
9.249077,-2.0641,-2.0034,0.6887,55.75351501,48.74237753,0.00000000,
9.305020,-2.0641,-2.0034,0.6887,55.75351501,48.74237753,0.00000000,
9.306472,-2.0641,-2.0034,0.6887,55.75351501,48.74237753,0.00000000,
9.307151,-2.0641,-2.0034,0.6887,55.75351501,48.74237753,0.00000000,
9.307736,-2.0641,-2.0034,0.6887,55.75351501,48.74237753,0.00000000,
9.308314,-2.0641,-2.0034,0.6887,55.75351501,48.74237753,0.00000000,
9.308872,-2.8035,-1.5358,-2.2567,55.75351501,48.74237753,0.00000000,
9.374030,-2.8035,-1.5358,-2.2567,55.75351501,48.74237753,0.00000000,
9.376069,-0.0384,-1.5969,-0.3375,55.75351501,48.74237753,0.00000000,
9.377293,-0.0384,-1.5969,-0.3375,55.75351501,48.74237753,0.00000000,
9.377964,-0.0384,-1.5969,-0.3375,55.75351501,48.74237753,0.00000000,
9.378576,-0.0384,-1.5969,-0.3375,55.75351501,48.74237753,0.00000000,
9.442352,-0.0384,-1.5969,-0.3375,55.75351501,48.74237753,0.00000000,
9.444355,1.9817,-0.0789,0.3259,55.75351501,48.74237753,0.00000000,
9.446144,1.9817,-0.0789,0.3259,55.75351501,48.74237753,0.00000000,
9.446670,1.9817,-0.0789,0.3259,55.75351501,48.74237753,0.00000000,
9.447172,1.9817,-0.0789,0.3259,55.75351501,48.74237753,0.00000000,
9.447656,1.9817,-0.0789,0.3259,55.75351501,48.74237753,0.00000000,
9.509092,1.9817,-0.0789,0.3259,55.75351501,48.74237753,0.00000000,
9.512138,1.9817,-0.0789,0.3259,55.75351501,48.74237753,0.00000000,
9.514148,1.9817,-0.0789,0.3259,55.75351501,48.74237753,0.00000000,
9.515906,1.9817,-0.0789,0.3259,55.75351501,48.74237753,0.00000000,
9.517464,0.7438,-0.7188,0.6303,55.75351501,48.74237753,0.00000000,
9.562053,0.7438,-0.7188,0.6303,55.75351501,48.74237753,0.00000000,
9.564724,0.7438,-0.7188,0.6303,55.75351501,48.74237753,0.00000000,
9.566186,0.7438,-0.7188,0.6303,55.75351501,48.74237753,0.00000000,
9.581274,0.7438,-0.7188,0.6303,55.75351501,48.74237753,0.00000000,
9.583863,0.7438,-0.7188,0.6303,55.75351501,48.74237753,0.00000000,
9.585529,0.8492,0.0428,-0.2228,55.75351501,48.74237753,0.00000000,
9.643123,0.8492,0.0428,-0.2228,55.75351501,48.74237753,0.00000000,
9.645611,0.8492,0.0428,-0.2228,55.75351501,48.74237753,0.00000000,
9.647027,0.8492,0.0428,-0.2228,55.75351501,48.74237753,0.00000000,
9.649030,0.8492,0.0428,-0.2228,55.75351501,48.74237753,0.00000000,
9.650635,0.0789,0.8414,0.1556,55.75351501,48.74237753,0.00000000,
9.709736,0.0789,0.8414,0.1556,55.75351501,48.74237753,0.00000000,
9.711657,0.0789,0.8414,0.1556,55.75351501,48.74237753,0.00000000,
9.712728,0.0789,0.8414,0.1556,55.75351501,48.74237753,0.00000000,
9.717840,0.0789,0.8414,0.1556,55.75351501,48.74237753,0.00000000,
9.719064,1.2720,0.6495,0.9951,55.75351501,48.74237753,0.00000000,
9.721068,1.2720,0.6495,0.9951,55.75351501,48.74237753,0.00000000,
9.776537,1.2720,0.6495,0.9951,55.75351501,48.74237753,0.00000000,
9.778503,1.2720,0.6495,0.9951,55.75351501,48.74237753,0.00000000,
9.779601,1.2720,0.6495,0.9951,55.75351501,48.74237753,0.00000000,
9.786189,1.2720,0.6495,0.9951,55.75351501,48.74237753,0.00000000,
9.787424,2.6437,-2.5113,4.7259,55.75351501,48.74237753,0.00000000,
9.842684,2.6437,-2.5113,4.7259,55.75351501,48.74237753,0.00000000,
9.845521,2.6437,-2.5113,4.7259,55.75351501,48.74237753,0.00000000,
9.847092,2.6437,-2.5113,4.7259,55.75351501,48.74237753,0.00000000,
9.854634,2.6437,-2.5113,4.7259,55.75351501,48.74237753,0.00000000,
9.856068,2.6437,-2.5113,4.7259,55.75351501,48.74237753,0.00000000,
9.857084,0.7319,-1.6303,-3.2977,55.75351501,48.74237753,0.00000000,
9.909406,0.7319,-1.6303,-3.2977,55.75351501,48.74237753,0.00000000,
9.912181,0.7319,-1.6303,-3.2977,55.75351501,48.74237753,0.00000000,
9.924779,0.7319,-1.6303,-3.2977,55.75351501,48.74237753,0.00000000,
9.927128,0.3400,-1.2380,-1.6839,55.75351501,48.74237753,0.00000000,
9.929775,0.3400,-1.2380,-1.6839,55.75351501,48.74237753,0.00000000,
9.976181,0.3400,-1.2380,-1.6839,55.75351501,48.74237753,0.00000000,
9.979226,0.3400,-1.2380,-1.6839,55.75351501,48.74237753,0.00000000,
9.981000,0.3400,-1.2380,-1.6839,55.75351501,48.74237753,0.00000000,
9.992401,0.3400,-1.2380,-1.6839,55.75351501,48.74237753,0.00000000,
9.995956,-0.3013,-1.1122,-0.8422,55.75351501,48.74237753,0.00000000,
9.998939,-0.3013,-1.1122,-0.8422,55.75351501,48.74237753,0.00000000,
10.034299,-0.3013,-1.1122,-0.8422,55.75351501,48.74237753,0.00000000,
10.037054,-0.3013,-1.1122,-0.8422,55.75351501,48.74237753,0.00000000,
10.060442,-0.3013,-1.1122,-0.8422,55.75351501,48.74237753,0.00000000,
10.063016,-0.3013,-1.1122,-0.8422,55.75351501,48.74237753,0.00000000,
10.064534,-0.3420,0.4104,-0.9930,55.75351501,48.74237753,0.00000000,
10.109400,-0.3420,0.4104,-0.9930,55.75351501,48.74237753,0.00000000,
10.111357,-0.3420,0.4104,-0.9930,55.75351501,48.74237753,0.00000000,
10.112394,-0.3420,0.4104,-0.9930,55.75351501,48.74237753,0.00000000,
10.130100,-0.3420,0.4104,-0.9930,55.75351501,48.74237753,0.00000000,
10.133739,-1.7950,1.3861,-0.3240,55.75351501,48.74237753,0.00000000,
10.135866,-1.7950,1.3861,-0.3240,55.75351501,48.74237753,0.00000000,
10.176317,-1.7950,1.3861,-0.3240,55.75351501,48.74237753,0.00000000,
10.179332,-1.7950,1.3861,-0.3240,55.75351501,48.74237753,0.00000000,
10.199394,-1.7950,1.3861,-0.3240,55.75351501,48.74237753,0.00000000,
10.202693,-2.0957,1.6526,0.1470,55.75351501,48.74237753,0.00000000,
10.205898,-2.0957,1.6526,0.1470,55.75351501,48.74237753,0.00000000,
10.243119,-2.0957,1.6526,0.1470,55.75351501,48.74237753,0.00000000,
10.246131,-2.0957,1.6526,0.1470,55.75351501,48.74237753,0.00000000,
10.267347,-2.0957,1.6526,0.1470,55.75351501,48.74237753,0.00000000,
10.269994,-2.0957,1.6526,0.1470,55.75351501,48.74237753,0.00000000,
10.271719,-1.9468,2.0859,0.3027,55.75351501,48.74237753,0.00000000,
10.274943,-1.9468,2.0859,0.3027,55.75351501,48.74237753,0.00000000,
10.309105,-1.9468,2.0859,0.3027,55.75351501,48.74237753,0.00000000,
10.311292,-1.9468,2.0859,0.3027,55.75351501,48.74237753,0.00000000,
10.336066,-1.9468,2.0859,0.3027,55.75351501,48.74237753,0.00000000,
10.338792,-1.9468,2.0859,0.3027,55.75351501,48.74237753,0.00000000,
10.340350,-1.8447,-1.7955,3.2481,55.75351501,48.74237753,0.00000000,
10.376402,-1.8447,-1.7955,3.2481,55.75351501,48.74237753,0.00000000,
10.379386,-1.8447,-1.7955,3.2481,55.75351501,48.74237753,0.00000000,
10.404883,-1.8447,-1.7955,3.2481,55.75351501,48.74237753,0.00000000,
10.407862,-1.8447,-1.7955,3.2481,55.75351501,48.74237753,0.00000000,
10.409952,-1.6768,-1.3312,-0.5081,55.75351501,48.74237753,0.00000000,
10.412683,-1.6768,-1.3312,-0.5081,55.75351501,48.74237753,0.00000000,
10.443207,-1.6768,-1.3312,-0.5081,55.75351501,48.74237753,0.00000000,
10.446452,-1.6768,-1.3312,-0.5081,55.75351501,48.74237753,0.00000000,
10.472657,-1.6768,-1.3312,-0.5081,55.75351501,48.74237753,0.00000000,
10.477714,-0.5407,-0.2508,-0.7896,55.75351501,48.74237753,0.00000000,
10.481303,-0.5407,-0.2508,-0.7896,55.75351501,48.74237753,0.00000000,
10.509746,-0.5407,-0.2508,-0.7896,55.75351501,48.74237753,0.00000000,
10.514968,-0.5407,-0.2508,-0.7896,55.75351501,48.74237753,0.00000000,
10.541854,-0.5407,-0.2508,-0.7896,55.75351501,48.74237753,0.00000000,
10.545671,-0.5407,-0.2508,-0.7896,55.75351501,48.74237753,0.00000000,
10.547829,-0.7471,-1.3500,0.0341,55.75351501,48.74237753,0.00000000,
10.550419,-0.7471,-1.3500,0.0341,55.75351501,48.74237753,0.00000000,
10.576198,-0.7471,-1.3500,0.0341,55.75351501,48.74237753,0.00000000,
10.609838,-0.7471,-1.3500,0.0341,55.75351501,48.74237753,0.00000000,
10.612267,-0.7471,-1.3500,0.0341,55.75351501,48.74237753,0.00000000,
10.614464,-0.7471,-1.3500,0.0341,55.75351501,48.74237753,0.00000000,
10.616189,-0.4701,0.5539,-1.0923,55.75351501,48.74237753,0.00000000,
10.642477,-0.4701,0.5539,-1.0923,55.75351501,48.74237753,0.00000000,
10.644627,-0.4701,0.5539,-1.0923,55.75351501,48.74237753,0.00000000,
10.679062,-0.4701,0.5539,-1.0923,55.75351501,48.74237753,0.00000000,
10.684199,1.8364,1.1250,-0.7404,55.75351501,48.74237753,0.00000000,
10.687255,1.8364,1.1250,-0.7404,55.75351501,48.74237753,0.00000000,
10.689066,1.8364,1.1250,-0.7404,55.75351501,48.74237753,0.00000000,
10.714208,1.8364,1.1250,-0.7404,55.75351501,48.74237753,0.00000000,
10.724624,1.8364,1.1250,-0.7404,55.75351501,48.74237753,0.00000000,
10.746919,1.8364,1.1250,-0.7404,55.75351501,48.74237753,0.00000000,
10.748955,1.8364,1.1250,-0.7404,55.75351501,48.74237753,0.00000000,
10.750227,1.2787,1.9034,-0.0497,55.75351501,48.74237753,0.00000000,
10.776819,1.2787,1.9034,-0.0497,55.75351501,48.74237753,0.00000000,
10.779996,1.2787,1.9034,-0.0497,55.75351501,48.74237753,0.00000000,
10.816388,1.2787,1.9034,-0.0497,55.75351501,48.74237753,0.00000000,
10.819164,1.2787,1.9034,-0.0497,55.75351501,48.74237753,0.00000000,
10.820859,1.9418,1.1752,2.5246,55.75351501,48.74237753,0.00000000,
10.822937,1.9418,1.1752,2.5246,55.75351501,48.74237753,0.00000000,
10.847200,1.9418,1.1752,2.5246,55.75351501,48.74237753,0.00000000,
10.885148,1.0090,0.5462,5.6170,55.75351501,48.74237753,0.00000000,
10.887782,1.0090,0.5462,5.6170,55.75351501,48.74237753,0.00000000,
10.888777,1.0090,0.5462,5.6170,55.75351501,48.74237753,0.00000000,
10.889752,1.0090,0.5462,5.6170,55.75351501,48.74237753,0.00000000,
10.909786,1.0090,0.5462,5.6170,55.75351501,48.74237753,0.00000000,
10.952674,1.0090,0.5462,5.6170,55.75351501,48.74237753,0.00000000,
10.955635,1.0090,0.5462,5.6170,55.75351501,48.74237753,0.00000000,
10.956944,1.0090,0.5462,5.6170,55.75351501,48.74237753,0.00000000,
10.958236,3.1753,-1.5574,0.2171,55.75351501,48.74237753,0.00000000,
10.960912,3.1753,-1.5574,0.2171,55.75351501,48.74237753,0.00000000,
10.977738,3.1753,-1.5574,0.2171,55.75351501,48.74237753,0.00000000,
11.022110,3.1753,-1.5574,0.2171,55.75351501,48.74237753,0.00000000,
11.025336,2.3329,-1.2177,-1.9797,55.75351501,48.74237753,0.00000000,
11.028227,2.3329,-1.2177,-1.9797,55.75351501,48.74237753,0.00000000,
11.029949,2.3329,-1.2177,-1.9797,55.75351501,48.74237753,0.00000000,
11.049429,2.3329,-1.2177,-1.9797,55.75351501,48.74237753,0.00000000,
11.089555,2.3329,-1.2177,-1.9797,55.75351501,48.74237753,0.00000000,
11.091327,2.3329,-1.2177,-1.9797,55.75351501,48.74237753,0.00000000,
11.092216,2.3329,-1.2177,-1.9797,55.75351501,48.74237753,0.00000000,
11.093218,1.3455,-1.5310,-0.4766,55.75351501,48.74237753,0.00000000,
11.094763,1.3455,-1.5310,-0.4766,55.75351501,48.74237753,0.00000000,
11.109124,1.3455,-1.5310,-0.4766,55.75351501,48.74237753,0.00000000,
11.159286,1.3455,-1.5310,-0.4766,55.75351501,48.74237753,0.00000000,
11.162587,1.3455,-1.5310,-0.4766,55.75351501,48.74237753,0.00000000,
11.164699,1.3455,-1.5310,-0.4766,55.75351501,48.74237753,0.00000000,
11.166503,0.0180,-1.0927,-0.8060,55.75351501,48.74237753,0.00000000,
11.176065,0.0180,-1.0927,-0.8060,55.75351501,48.74237753,0.00000000,
11.228335,0.0180,-1.0927,-0.8060,55.75351501,48.74237753,0.00000000,
11.231410,0.0180,-1.0927,-0.8060,55.75351501,48.74237753,0.00000000,
11.233392,0.0180,-1.0927,-0.8060,55.75351501,48.74237753,0.00000000,
11.235215,-0.1417,-0.2864,-1.0913,55.75351501,48.74237753,0.00000000,
11.238019,-0.1417,-0.2864,-1.0913,55.75351501,48.74237753,0.00000000,
11.295971,-0.1417,-0.2864,-1.0913,55.75351501,48.74237753,0.00000000,
11.298993,-0.1417,-0.2864,-1.0913,55.75351501,48.74237753,0.00000000,
11.300506,-0.1417,-0.2864,-1.0913,55.75351501,48.74237753,0.00000000,
11.302038,-0.1417,-0.2864,-1.0913,55.75351501,48.74237753,0.00000000,
11.303761,-0.3923,-0.3465,-1.2415,55.75351501,48.74237753,0.00000000,
11.308563,-0.3923,-0.3465,-1.2415,55.75351501,48.74237753,0.00000000,
11.365887,-0.3923,-0.3465,-1.2415,55.75351501,48.74237753,0.00000000,
11.369453,-0.3923,-0.3465,-1.2415,55.75351501,48.74237753,0.00000000,
11.371514,-0.3923,-0.3465,-1.2415,55.75351501,48.74237753,0.00000000,
11.373683,-0.7480,-0.2509,0.0398,55.75351501,48.74237753,0.00000000,
11.375884,-0.7480,-0.2509,0.0398,55.75351501,48.74237753,0.00000000,
11.396560,-0.7480,-0.2509,0.0398,55.75351501,48.74237753,0.00000000,
11.433899,-0.7480,-0.2509,0.0398,55.75351501,48.74237753,0.00000000,
11.436887,-0.7480,-0.2509,0.0398,55.75351501,48.74237753,0.00000000,
11.438682,-0.7480,-0.2509,0.0398,55.75351501,48.74237753,0.00000000,
11.440319,-1.6864,0.3801,0.5673,55.75351501,48.74237753,0.00000000,
11.443526,-1.6864,0.3801,0.5673,55.75351501,48.74237753,0.00000000,
11.502005,-1.6864,0.3801,0.5673,55.75351501,48.74237753,0.00000000,
11.504723,-1.6864,0.3801,0.5673,55.75351501,48.74237753,0.00000000,
11.506343,-1.6864,0.3801,0.5673,55.75351501,48.74237753,0.00000000,
11.507628,-3.0170,-1.7106,4.7396,55.75351501,48.74237753,0.00000000,
11.510030,-3.0170,-1.7106,4.7396,55.75351501,48.74237753,0.00000000,
11.570425,-3.0170,-1.7106,4.7396,55.75351501,48.74237753,0.00000000,
11.573622,-3.0324,-2.0108,-0.9150,55.75351501,48.74237753,0.00000000,
11.576521,-3.0324,-2.0108,-0.9150,55.75351501,48.74237753,0.00000000,
11.578489,-3.0324,-2.0108,-0.9150,55.75351501,48.74237753,0.00000000,
11.580455,-3.0324,-2.0108,-0.9150,55.75351501,48.74237753,0.00000000,
11.639128,-3.0324,-2.0108,-0.9150,55.75351501,48.74237753,0.00000000,
11.642565,-2.9498,-1.1361,-2.4672,55.75351501,48.74237753,0.00000000,
11.645832,-2.9498,-1.1361,-2.4672,55.75351501,48.74237753,0.00000000,
11.647806,-2.9498,-1.1361,-2.4672,55.75351501,48.74237753,0.00000000,
11.649792,-2.9498,-1.1361,-2.4672,55.75351501,48.74237753,0.00000000,
11.651765,-2.9498,-1.1361,-2.4672,55.75351501,48.74237753,0.00000000,
11.708088,-2.9498,-1.1361,-2.4672,55.75351501,48.74237753,0.00000000,
11.711626,-2.9498,-1.1361,-2.4672,55.75351501,48.74237753,0.00000000,
11.714022,-2.9498,-1.1361,-2.4672,55.75351501,48.74237753,0.00000000,
11.716104,-1.3621,-1.5054,-0.5835,55.75351501,48.74237753,0.00000000,
11.718706,-1.3621,-1.5054,-0.5835,55.75351501,48.74237753,0.00000000,
11.777190,0.7012,0.6320,-2.0605,55.75351501,48.74237753,0.00000000,
11.780946,0.7012,0.6320,-2.0605,55.75351501,48.74237753,0.00000000,
11.782599,0.7012,0.6320,-2.0605,55.75351501,48.74237753,0.00000000,
11.784307,0.7012,0.6320,-2.0605,55.75351501,48.74237753,0.00000000,
11.785726,0.7012,0.6320,-2.0605,55.75351501,48.74237753,0.00000000,
11.787162,0.7012,0.6320,-2.0605,55.75351501,48.74237753,0.00000000,
11.843094,0.7012,0.6320,-2.0605,55.75351501,48.74237753,0.00000000,
11.846157,0.7012,0.6320,-2.0605,55.75351501,48.74237753,0.00000000,
11.847702,0.7012,0.6320,-2.0605,55.75351501,48.74237753,0.00000000,
11.849253,0.7012,0.6320,-2.0605,55.75351501,48.74237753,0.00000000,
11.850729,2.3297,2.2799,0.8716,55.75351501,48.74237753,0.00000000,
11.909533,2.3297,2.2799,0.8716,55.75351501,48.74237753,0.00000000,
11.911912,2.3297,2.2799,0.8716,55.75351501,48.74237753,0.00000000,
11.913288,2.3297,2.2799,0.8716,55.75351501,48.74237753,0.00000000,
11.914136,2.3297,2.2799,0.8716,55.75351501,48.74237753,0.00000000,
11.915159,2.3297,2.2799,0.8716,55.75351501,48.74237753,0.00000000,
11.915839,2.5083,2.7372,1.9031,55.75351501,48.74237753,0.00000000,
11.976019,2.5083,2.7372,1.9031,55.75351501,48.74237753,0.00000000,
11.978021,2.5083,2.7372,1.9031,55.75351501,48.74237753,0.00000000,
11.979232,2.5083,2.7372,1.9031,55.75351501,48.74237753,0.00000000,
11.982247,2.5083,2.7372,1.9031,55.75351501,48.74237753,0.00000000,
11.983861,2.4882,1.8804,2.9276,55.75351501,48.74237753,0.00000000,
12.033597,2.4882,1.8804,2.9276,55.75351501,48.74237753,0.00000000,
12.034858,2.4882,1.8804,2.9276,55.75351501,48.74237753,0.00000000,
12.035420,2.4882,1.8804,2.9276,55.75351501,48.74237753,0.00000000,
12.051116,2.4882,1.8804,2.9276,55.75351501,48.74237753,0.00000000,
12.052403,2.4882,1.8804,2.9276,55.75351501,48.74237753,0.00000000,
12.053497,2.8419,1.2628,2.4494,55.75351501,48.74237753,0.00000000,
12.109473,2.8419,1.2628,2.4494,55.75351501,48.74237753,0.00000000,
12.110975,2.8419,1.2628,2.4494,55.75351501,48.74237753,0.00000000,
12.111563,2.8419,1.2628,2.4494,55.75351501,48.74237753,0.00000000,
12.119508,2.8419,1.2628,2.4494,55.75351501,48.74237753,0.00000000,
12.121247,2.1906,-1.3106,-0.0917,55.75351501,48.74237753,0.00000000,
12.175464,2.1906,-1.3106,-0.0917,55.75351501,48.74237753,0.00000000,
12.177880,2.1906,-1.3106,-0.0917,55.75351501,48.74237753,0.00000000,
12.179138,2.1906,-1.3106,-0.0917,55.75351501,48.74237753,0.00000000,
12.187876,2.1906,-1.3106,-0.0917,55.75351501,48.74237753,0.00000000,
12.190378,2.1906,-1.3106,-0.0917,55.75351501,48.74237753,0.00000000,
12.191757,2.0171,-1.3168,-1.3978,55.75351501,48.74237753,0.00000000,
12.242277,2.0171,-1.3168,-1.3978,55.75351501,48.74237753,0.00000000,
12.244429,2.0171,-1.3168,-1.3978,55.75351501,48.74237753,0.00000000,
12.257082,2.0171,-1.3168,-1.3978,55.75351501,48.74237753,0.00000000,
12.260188,2.0171,-1.3168,-1.3978,55.75351501,48.74237753,0.00000000,
12.262010,1.3595,-1.8969,0.4081,55.75351501,48.74237753,0.00000000,
12.309516,1.3595,-1.8969,0.4081,55.75351501,48.74237753,0.00000000,
12.312045,1.3595,-1.8969,0.4081,55.75351501,48.74237753,0.00000000,
12.314041,1.3595,-1.8969,0.4081,55.75351501,48.74237753,0.00000000,
12.325016,1.3595,-1.8969,0.4081,55.75351501,48.74237753,0.00000000,
12.327572,1.3595,-1.8969,0.4081,55.75351501,48.74237753,0.00000000,
12.329494,-0.4179,-1.8150,-0.4069,55.75351501,48.74237753,0.00000000,
12.375470,-0.4179,-1.8150,-0.4069,55.75351501,48.74237753,0.00000000,
12.377604,-0.4179,-1.8150,-0.4069,55.75351501,48.74237753,0.00000000,
12.394004,-0.4179,-1.8150,-0.4069,55.75351501,48.74237753,0.00000000,
12.396983,-0.3773,-1.0292,-0.8497,55.75351501,48.74237753,0.00000000,
12.398734,-0.3773,-1.0292,-0.8497,55.75351501,48.74237753,0.00000000,
12.443632,-0.3773,-1.0292,-0.8497,55.75351501,48.74237753,0.00000000,
12.447214,-0.3773,-1.0292,-0.8497,55.75351501,48.74237753,0.00000000,
12.449206,-0.3773,-1.0292,-0.8497,55.75351501,48.74237753,0.00000000,
12.463160,-0.3773,-1.0292,-0.8497,55.75351501,48.74237753,0.00000000,
12.466849,-0.9974,-0.4508,-0.2712,55.75351501,48.74237753,0.00000000,
12.469849,-0.9974,-0.4508,-0.2712,55.75351501,48.74237753,0.00000000,
12.509646,-0.9974,-0.4508,-0.2712,55.75351501,48.74237753,0.00000000,
12.513638,-0.9974,-0.4508,-0.2712,55.75351501,48.74237753,0.00000000,
12.522328,-0.9974,-0.4508,-0.2712,55.75351501,48.74237753,0.00000000,
12.531464,-0.9974,-0.4508,-0.2712,55.75351501,48.74237753,0.00000000,
12.535488,-0.7181,0.2418,0.2359,55.75351501,48.74237753,0.00000000,
12.576513,-0.7181,0.2418,0.2359,55.75351501,48.74237753,0.00000000,
12.579267,-0.7181,0.2418,0.2359,55.75351501,48.74237753,0.00000000,
12.600413,-0.7181,0.2418,0.2359,55.75351501,48.74237753,0.00000000,
12.603725,-1.7119,0.9052,-0.6317,55.75351501,48.74237753,0.00000000,
12.607066,-1.7119,0.9052,-0.6317,55.75351501,48.74237753,0.00000000,
12.608881,-1.7119,0.9052,-0.6317,55.75351501,48.74237753,0.00000000,
12.643198,-1.7119,0.9052,-0.6317,55.75351501,48.74237753,0.00000000,
12.646385,-1.7119,0.9052,-0.6317,55.75351501,48.74237753,0.00000000,
12.668472,-1.6936,-2.5486,4.6478,55.75351501,48.74237753,0.00000000,
12.672409,-1.6936,-2.5486,4.6478,55.75351501,48.74237753,0.00000000,
12.674822,-1.6936,-2.5486,4.6478,55.75351501,48.74237753,0.00000000,
12.708999,-1.6936,-2.5486,4.6478,55.75351501,48.74237753,0.00000000,
12.711437,-1.6936,-2.5486,4.6478,55.75351501,48.74237753,0.00000000,
12.737338,-1.6936,-2.5486,4.6478,55.75351501,48.74237753,0.00000000,
12.740164,-1.6936,-2.5486,4.6478,55.75351501,48.74237753,0.00000000,
12.741931,-1.6936,-2.5486,4.6478,55.75351501,48.74237753,0.00000000,
12.743793,-1.5193,-2.4877,-1.2655,55.75351501,48.74237753,0.00000000,
12.776312,-1.5193,-2.4877,-1.2655,55.75351501,48.74237753,0.00000000,
12.779287,-1.5193,-2.4877,-1.2655,55.75351501,48.74237753,0.00000000,
12.805366,-1.5193,-2.4877,-1.2655,55.75351501,48.74237753,0.00000000,
12.808032,-1.5193,-2.4877,-1.2655,55.75351501,48.74237753,0.00000000,
12.809567,-1.7959,-1.1713,-3.9812,55.75351501,48.74237753,0.00000000,
12.843596,-1.7959,-1.1713,-3.9812,55.75351501,48.74237753,0.00000000,
12.847322,-1.7959,-1.1713,-3.9812,55.75351501,48.74237753,0.00000000,
12.875103,-1.7959,-1.1713,-3.9812,55.75351501,48.74237753,0.00000000,
12.878651,-1.7959,-1.1713,-3.9812,55.75351501,48.74237753,0.00000000,
12.880676,-1.7959,-1.1713,-3.9812,55.75351501,48.74237753,0.00000000,
12.882590,-0.6194,-0.5014,-0.7801,55.75351501,48.74237753,0.00000000,
12.909514,-0.6194,-0.5014,-0.7801,55.75351501,48.74237753,0.00000000,
12.943664,-0.6194,-0.5014,-0.7801,55.75351501,48.74237753,0.00000000,
12.947217,-0.6194,-0.5014,-0.7801,55.75351501,48.74237753,0.00000000,
12.949806,-0.6194,-0.5014,-0.7801,55.75351501,48.74237753,0.00000000,
12.952191,-0.8217,1.1969,-0.6930,55.75351501,48.74237753,0.00000000,
12.975654,-0.8217,1.1969,-0.6930,55.75351501,48.74237753,0.00000000,
12.977502,-0.8217,1.1969,-0.6930,55.75351501,48.74237753,0.00000000,
13.010715,-0.8217,1.1969,-0.6930,55.75351501,48.74237753,0.00000000,
13.012694,-0.2161,1.8986,1.0474,55.75351501,48.74237753,0.00000000,
13.014303,-0.2161,1.8986,1.0474,55.75351501,48.74237753,0.00000000,
13.015029,-0.2161,1.8986,1.0474,55.75351501,48.74237753,0.00000000,
13.034251,-0.2161,1.8986,1.0474,55.75351501,48.74237753,0.00000000,
13.080399,-0.2161,1.8986,1.0474,55.75351501,48.74237753,0.00000000,
13.082216,-0.2161,1.8986,1.0474,55.75351501,48.74237753,0.00000000,
13.083370,-0.2161,1.8986,1.0474,55.75351501,48.74237753,0.00000000,
13.084473,1.1756,2.6074,1.2717,55.75351501,48.74237753,0.00000000,
13.109115,1.1756,2.6074,1.2717,55.75351501,48.74237753,0.00000000,
13.110415,1.1756,2.6074,1.2717,55.75351501,48.74237753,0.00000000,
13.148368,1.1756,2.6074,1.2717,55.75351501,48.74237753,0.00000000,
13.149785,1.1756,2.6074,1.2717,55.75351501,48.74237753,0.00000000,
13.150492,1.1007,2.6921,1.9115,55.75351501,48.74237753,0.00000000,
13.151849,1.1007,2.6921,1.9115,55.75351501,48.74237753,0.00000000,
13.176602,1.1007,2.6921,1.9115,55.75351501,48.74237753,0.00000000,
13.217573,1.1007,2.6921,1.9115,55.75351501,48.74237753,0.00000000,
13.219748,2.7745,0.8162,3.6165,55.75351501,48.74237753,0.00000000,
13.221605,2.7745,0.8162,3.6165,55.75351501,48.74237753,0.00000000,
13.222662,2.7745,0.8162,3.6165,55.75351501,48.74237753,0.00000000,
13.243076,2.7745,0.8162,3.6165,55.75351501,48.74237753,0.00000000,
13.286490,2.5598,-1.3347,-0.3434,55.75351501,48.74237753,0.00000000,
13.290286,2.5598,-1.3347,-0.3434,55.75351501,48.74237753,0.00000000,
13.292305,2.5598,-1.3347,-0.3434,55.75351501,48.74237753,0.00000000,
13.294371,2.5598,-1.3347,-0.3434,55.75351501,48.74237753,0.00000000,
13.296122,2.5598,-1.3347,-0.3434,55.75351501,48.74237753,0.00000000,
13.318305,2.5598,-1.3347,-0.3434,55.75351501,48.74237753,0.00000000,
13.354504,2.5598,-1.3347,-0.3434,55.75351501,48.74237753,0.00000000,
13.357290,2.5598,-1.3347,-0.3434,55.75351501,48.74237753,0.00000000,
13.359039,2.5598,-1.3347,-0.3434,55.75351501,48.74237753,0.00000000,
13.360634,1.3681,-0.9831,-2.5124,55.75351501,48.74237753,0.00000000,
13.375773,1.3681,-0.9831,-2.5124,55.75351501,48.74237753,0.00000000,
13.423603,1.3681,-0.9831,-2.5124,55.75351501,48.74237753,0.00000000,
13.426013,1.3681,-0.9831,-2.5124,55.75351501,48.74237753,0.00000000,
13.427382,1.3681,-0.9831,-2.5124,55.75351501,48.74237753,0.00000000,
13.428710,-0.0673,-1.8521,0.3636,55.75351501,48.74237753,0.00000000,
13.430328,-0.0673,-1.8521,0.3636,55.75351501,48.74237753,0.00000000,
13.450032,-0.0673,-1.8521,0.3636,55.75351501,48.74237753,0.00000000,
13.491140,-0.0673,-1.8521,0.3636,55.75351501,48.74237753,0.00000000,
13.493254,-0.0673,-1.8521,0.3636,55.75351501,48.74237753,0.00000000,
13.494661,-0.0673,-1.8521,0.3636,55.75351501,48.74237753,0.00000000,
13.495897,-0.3019,-1.6691,-0.3574,55.75351501,48.74237753,0.00000000,
13.515014,-0.3019,-1.6691,-0.3574,55.75351501,48.74237753,0.00000000,
13.560760,-0.3019,-1.6691,-0.3574,55.75351501,48.74237753,0.00000000,
13.564447,-1.6341,-1.7050,-0.6189,55.75351501,48.74237753,0.00000000,
13.567642,-1.6341,-1.7050,-0.6189,55.75351501,48.74237753,0.00000000,
13.569887,-1.6341,-1.7050,-0.6189,55.75351501,48.74237753,0.00000000,
13.571850,-1.6341,-1.7050,-0.6189,55.75351501,48.74237753,0.00000000,
13.629430,-1.5168,-0.6456,-2.4820,55.75351501,48.74237753,0.00000000,
13.634368,-1.5168,-0.6456,-2.4820,55.75351501,48.74237753,0.00000000,
13.636501,-1.5168,-0.6456,-2.4820,55.75351501,48.74237753,0.00000000,
13.638620,-1.5168,-0.6456,-2.4820,55.75351501,48.74237753,0.00000000,
13.640668,-1.5168,-0.6456,-2.4820,55.75351501,48.74237753,0.00000000,
13.642717,-1.5168,-0.6456,-2.4820,55.75351501,48.74237753,0.00000000,
13.698241,-1.5168,-0.6456,-2.4820,55.75351501,48.74237753,0.00000000,
13.701837,-1.5168,-0.6456,-2.4820,55.75351501,48.74237753,0.00000000,
13.704353,-1.5168,-0.6456,-2.4820,55.75351501,48.74237753,0.00000000,
13.706447,-0.2509,0.4110,-0.4702,55.75351501,48.74237753,0.00000000,
13.708903,-0.2509,0.4110,-0.4702,55.75351501,48.74237753,0.00000000,
13.766947,-0.2509,0.4110,-0.4702,55.75351501,48.74237753,0.00000000,
13.770360,-0.2509,0.4110,-0.4702,55.75351501,48.74237753,0.00000000,
13.772365,-0.2509,0.4110,-0.4702,55.75351501,48.74237753,0.00000000,
13.774583,-2.1540,0.6214,1.7946,55.75351501,48.74237753,0.00000000,
13.777033,-2.1540,0.6214,1.7946,55.75351501,48.74237753,0.00000000,
13.779787,-2.1540,0.6214,1.7946,55.75351501,48.74237753,0.00000000,
13.835852,-2.1540,0.6214,1.7946,55.75351501,48.74237753,0.00000000,
13.838576,-2.1540,0.6214,1.7946,55.75351501,48.74237753,0.00000000,
13.840302,-2.1540,0.6214,1.7946,55.75351501,48.74237753,0.00000000,
13.842134,-2.1540,0.6214,1.7946,55.75351501,48.74237753,0.00000000,
13.843943,0.0846,-1.7960,5.4738,55.75351501,48.74237753,0.00000000,
13.903498,0.0846,-1.7960,5.4738,55.75351501,48.74237753,0.00000000,
13.906281,0.0846,-1.7960,5.4738,55.75351501,48.74237753,0.00000000,
13.908389,0.0846,-1.7960,5.4738,55.75351501,48.74237753,0.00000000,
13.909682,0.0846,-1.7960,5.4738,55.75351501,48.74237753,0.00000000,
13.910850,-2.5752,-0.4182,-2.1183,55.75351501,48.74237753,0.00000000,
13.971826,-2.5752,-0.4182,-2.1183,55.75351501,48.74237753,0.00000000,
13.976307,-1.1235,-0.7516,-1.8412,55.75351501,48.74237753,0.00000000,
13.979315,-1.1235,-0.7516,-1.8412,55.75351501,48.74237753,0.00000000,
13.981627,-1.1235,-0.7516,-1.8412,55.75351501,48.74237753,0.00000000,
13.984062,-1.1235,-0.7516,-1.8412,55.75351501,48.74237753,0.00000000,
13.986332,-1.1235,-0.7516,-1.8412,55.75351501,48.74237753,0.00000000,
14.034595,-1.1235,-0.7516,-1.8412,55.75351501,48.74237753,0.00000000,
14.038948,-1.1235,-0.7516,-1.8412,55.75351501,48.74237753,0.00000000,
14.041471,-1.1235,-0.7516,-1.8412,55.75351501,48.74237753,0.00000000,
14.044244,-1.1235,-0.7516,-1.8412,55.75351501,48.74237753,0.00000000,
14.047452,1.1150,0.2800,-1.0827,55.75351501,48.74237753,0.00000000,
14.108896,1.1150,0.2800,-1.0827,55.75351501,48.74237753,0.00000000,
14.110235,1.0382,1.3727,-0.4623,55.75351501,48.74237753,0.00000000,
14.111141,1.0382,1.3727,-0.4623,55.75351501,48.74237753,0.00000000,
14.111661,1.0382,1.3727,-0.4623,55.75351501,48.74237753,0.00000000,
14.112154,1.0382,1.3727,-0.4623,55.75351501,48.74237753,0.00000000,
14.112628,1.0382,1.3727,-0.4623,55.75351501,48.74237753,0.00000000,
14.169433,1.0382,1.3727,-0.4623,55.75351501,48.74237753,0.00000000,
14.172380,1.0382,1.3727,-0.4623,55.75351501,48.74237753,0.00000000,
14.174298,1.0382,1.3727,-0.4623,55.75351501,48.74237753,0.00000000,
14.177498,1.0382,1.3727,-0.4623,55.75351501,48.74237753,0.00000000,
14.179156,2.1171,2.1787,0.3843,55.75351501,48.74237753,0.00000000,
14.243384,2.1171,2.1787,0.3843,55.75351501,48.74237753,0.00000000,
14.245540,2.1171,2.1787,0.3843,55.75351501,48.74237753,0.00000000,
14.246760,2.1171,2.1787,0.3843,55.75351501,48.74237753,0.00000000,
14.247891,2.1171,2.1787,0.3843,55.75351501,48.74237753,0.00000000,
14.248797,2.1171,2.1787,0.3843,55.75351501,48.74237753,0.00000000,
14.249184,1.2840,2.1154,1.6932,55.75351501,48.74237753,0.00000000,
14.309201,1.2840,2.1154,1.6932,55.75351501,48.74237753,0.00000000,
14.310168,1.2840,2.1154,1.6932,55.75351501,48.74237753,0.00000000,
14.310572,1.2840,2.1154,1.6932,55.75351501,48.74237753,0.00000000,
14.314371,1.7246,0.7848,2.1814,55.75351501,48.74237753,0.00000000,
14.315228,1.7246,0.7848,2.1814,55.75351501,48.74237753,0.00000000,
14.376439,1.7246,0.7848,2.1814,55.75351501,48.74237753,0.00000000,
14.379603,1.7246,0.7848,2.1814,55.75351501,48.74237753,0.00000000,
14.381016,1.7246,0.7848,2.1814,55.75351501,48.74237753,0.00000000,
14.384217,1.7246,0.7848,2.1814,55.75351501,48.74237753,0.00000000,
14.385887,1.7246,0.7848,2.1814,55.75351501,48.74237753,0.00000000,
14.387123,2.7858,-1.1147,0.2918,55.75351501,48.74237753,0.00000000,
14.443437,2.7858,-1.1147,0.2918,55.75351501,48.74237753,0.00000000,
14.446134,2.7858,-1.1147,0.2918,55.75351501,48.74237753,0.00000000,
14.447600,2.7858,-1.1147,0.2918,55.75351501,48.74237753,0.00000000,
14.452422,2.7858,-1.1147,0.2918,55.75351501,48.74237753,0.00000000,
14.454612,0.7725,-0.9783,-0.5117,55.75351501,48.74237753,0.00000000,
14.509046,0.7725,-0.9783,-0.5117,55.75351501,48.74237753,0.00000000,
14.511307,0.7725,-0.9783,-0.5117,55.75351501,48.74237753,0.00000000,
14.512538,0.7725,-0.9783,-0.5117,55.75351501,48.74237753,0.00000000,
14.521519,0.7725,-0.9783,-0.5117,55.75351501,48.74237753,0.00000000,
14.524791,-0.5278,-1.4644,0.1072,55.75351501,48.74237753,0.00000000,
14.527660,-0.5278,-1.4644,0.1072,55.75351501,48.74237753,0.00000000,
14.575486,-0.5278,-1.4644,0.1072,55.75351501,48.74237753,0.00000000,
14.577559,-0.5278,-1.4644,0.1072,55.75351501,48.74237753,0.00000000,
14.589683,-0.5278,-1.4644,0.1072,55.75351501,48.74237753,0.00000000,
14.591602,-0.5278,-1.4644,0.1072,55.75351501,48.74237753,0.00000000,
14.593136,-0.1119,-0.9059,-0.9520,55.75351501,48.74237753,0.00000000,
14.642645,-0.1119,-0.9059,-0.9520,55.75351501,48.74237753,0.00000000,
14.645103,-0.1119,-0.9059,-0.9520,55.75351501,48.74237753,0.00000000,
14.646351,-0.1119,-0.9059,-0.9520,55.75351501,48.74237753,0.00000000,
14.657521,-0.1119,-0.9059,-0.9520,55.75351501,48.74237753,0.00000000,
14.659444,-0.1119,-0.9059,-0.9520,55.75351501,48.74237753,0.00000000,
14.660631,-0.2999,-0.6224,-0.7323,55.75351501,48.74237753,0.00000000,
14.709022,-0.2999,-0.6224,-0.7323,55.75351501,48.74237753,0.00000000,
14.711235,-0.2999,-0.6224,-0.7323,55.75351501,48.74237753,0.00000000,
14.726352,-0.2999,-0.6224,-0.7323,55.75351501,48.74237753,0.00000000,
14.729264,-0.8335,0.0587,-0.6119,55.75351501,48.74237753,0.00000000,
14.732002,-0.8335,0.0587,-0.6119,55.75351501,48.74237753,0.00000000,
14.775514,-0.8335,0.0587,-0.6119,55.75351501,48.74237753,0.00000000,
14.777537,-0.8335,0.0587,-0.6119,55.75351501,48.74237753,0.00000000,
14.778908,-0.8335,0.0587,-0.6119,55.75351501,48.74237753,0.00000000,
14.795119,-0.8335,0.0587,-0.6119,55.75351501,48.74237753,0.00000000,
14.797404,-0.8335,0.0587,-0.6119,55.75351501,48.74237753,0.00000000,
14.798849,-0.1130,0.0683,1.1218,55.75351501,48.74237753,0.00000000,
14.842472,-0.1130,0.0683,1.1218,55.75351501,48.74237753,0.00000000,
14.844349,-0.1130,0.0683,1.1218,55.75351501,48.74237753,0.00000000,
14.863658,-0.1130,0.0683,1.1218,55.75351501,48.74237753,0.00000000,
14.865261,-0.1130,0.0683,1.1218,55.75351501,48.74237753,0.00000000,
14.866218,-2.9253,-0.2168,0.2821,55.75351501,48.74237753,0.00000000,
14.908832,-2.9253,-0.2168,0.2821,55.75351501,48.74237753,0.00000000,
14.910785,-2.9253,-0.2168,0.2821,55.75351501,48.74237753,0.00000000,
14.931887,-2.9253,-0.2168,0.2821,55.75351501,48.74237753,0.00000000,
14.934052,-0.7897,-2.6298,3.7028,55.75351501,48.74237753,0.00000000,
14.935331,-0.7897,-2.6298,3.7028,55.75351501,48.74237753,0.00000000,
14.936223,-0.7897,-2.6298,3.7028,55.75351501,48.74237753,0.00000000,
14.975334,-0.7897,-2.6298,3.7028,55.75351501,48.74237753,0.00000000,
14.977855,-0.7897,-2.6298,3.7028,55.75351501,48.74237753,0.00000000,
15.000471,-0.7897,-2.6298,3.7028,55.75351501,48.74237753,0.00000000,
15.002177,-2.1540,-1.1218,-3.9866,55.75351501,48.74237753,0.00000000,
15.003800,-2.1540,-1.1218,-3.9866,55.75351501,48.74237753,0.00000000,
15.033577,-2.1540,-1.1218,-3.9866,55.75351501,48.74237753,0.00000000,
15.035584,-2.1540,-1.1218,-3.9866,55.75351501,48.74237753,0.00000000,
15.069088,-2.1540,-1.1218,-3.9866,55.75351501,48.74237753,0.00000000,
15.071179,-1.4346,-0.9378,-0.9064,55.75351501,48.74237753,0.00000000,
15.073323,-1.4346,-0.9378,-0.9064,55.75351501,48.74237753,0.00000000,
15.074705,-1.4346,-0.9378,-0.9064,55.75351501,48.74237753,0.00000000,
15.108619,-1.4346,-0.9378,-0.9064,55.75351501,48.74237753,0.00000000,
15.110681,-1.4346,-0.9378,-0.9064,55.75351501,48.74237753,0.00000000,
15.137558,-1.4346,-0.9378,-0.9064,55.75351501,48.74237753,0.00000000,
15.139494,-1.4346,-0.9378,-0.9064,55.75351501,48.74237753,0.00000000,
15.140690,-0.4153,0.2907,-1.2547,55.75351501,48.74237753,0.00000000,
15.175513,-0.4153,0.2907,-1.2547,55.75351501,48.74237753,0.00000000,
15.176975,-0.4153,0.2907,-1.2547,55.75351501,48.74237753,0.00000000,
15.206177,-0.4153,0.2907,-1.2547,55.75351501,48.74237753,0.00000000,
15.207627,-0.4153,0.2907,-1.2547,55.75351501,48.74237753,0.00000000,
15.208248,-0.4153,0.2907,-1.2547,55.75351501,48.74237753,0.00000000,
15.208791,0.9872,0.9895,0.5364,55.75351501,48.74237753,0.00000000,
15.228841,0.9872,0.9895,0.5364,55.75351501,48.74237753,0.00000000,
15.275195,0.9872,0.9895,0.5364,55.75351501,48.74237753,0.00000000,
15.276545,0.9872,0.9895,0.5364,55.75351501,48.74237753,0.00000000,
15.277228,0.9872,0.9895,0.5364,55.75351501,48.74237753,0.00000000,
15.277860,0.8841,1.8486,0.5831,55.75351501,48.74237753,0.00000000,
15.308933,0.8841,1.8486,0.5831,55.75351501,48.74237753,0.00000000,
15.310339,0.8841,1.8486,0.5831,55.75351501,48.74237753,0.00000000,
15.345242,0.8841,1.8486,0.5831,55.75351501,48.74237753,0.00000000,
15.347548,0.8841,1.8486,0.5831,55.75351501,48.74237753,0.00000000,
15.348658,0.6817,1.8696,1.5098,55.75351501,48.74237753,0.00000000,
15.350517,0.6817,1.8696,1.5098,55.75351501,48.74237753,0.00000000,
15.376523,0.6817,1.8696,1.5098,55.75351501,48.74237753,0.00000000,
15.413695,0.6817,1.8696,1.5098,55.75351501,48.74237753,0.00000000,
15.416205,0.6817,1.8696,1.5098,55.75351501,48.74237753,0.00000000,
15.417552,0.6817,1.8696,1.5098,55.75351501,48.74237753,0.00000000,
15.418753,1.9957,1.5209,1.5930,55.75351501,48.74237753,0.00000000,
15.443760,1.9957,1.5209,1.5930,55.75351501,48.74237753,0.00000000,
15.445881,1.9957,1.5209,1.5930,55.75351501,48.74237753,0.00000000,
15.481370,1.9957,1.5209,1.5930,55.75351501,48.74237753,0.00000000,
15.483072,1.9957,1.5209,1.5930,55.75351501,48.74237753,0.00000000,
15.483927,2.9249,-0.2760,1.2576,55.75351501,48.74237753,0.00000000,
15.486383,2.9249,-0.2760,1.2576,55.75351501,48.74237753,0.00000000,
15.508665,2.9249,-0.2760,1.2576,55.75351501,48.74237753,0.00000000,
15.550550,1.0499,0.0204,-0.5055,55.75351501,48.74237753,0.00000000,
15.554345,1.0499,0.0204,-0.5055,55.75351501,48.74237753,0.00000000,
15.556085,1.0499,0.0204,-0.5055,55.75351501,48.74237753,0.00000000,
15.557627,1.0499,0.0204,-0.5055,55.75351501,48.74237753,0.00000000,
15.574690,1.0499,0.0204,-0.5055,55.75351501,48.74237753,0.00000000,
15.619601,1.0499,0.0204,-0.5055,55.75351501,48.74237753,0.00000000,
15.622575,-0.3071,-0.9285,1.2834,55.75351501,48.74237753,0.00000000,
15.625702,-0.3071,-0.9285,1.2834,55.75351501,48.74237753,0.00000000,
15.627443,-0.3071,-0.9285,1.2834,55.75351501,48.74237753,0.00000000,
15.629315,-0.3071,-0.9285,1.2834,55.75351501,48.74237753,0.00000000,
15.649380,-0.3071,-0.9285,1.2834,55.75351501,48.74237753,0.00000000,
15.687346,-0.3071,-0.9285,1.2834,55.75351501,48.74237753,0.00000000,
15.689876,-0.3071,-0.9285,1.2834,55.75351501,48.74237753,0.00000000,
15.691307,-0.3071,-0.9285,1.2834,55.75351501,48.74237753,0.00000000,
15.692558,-0.7248,-1.3519,-1.2124,55.75351501,48.74237753,0.00000000,
15.719882,-0.7248,-1.3519,-1.2124,55.75351501,48.74237753,0.00000000,
15.756786,-0.7248,-1.3519,-1.2124,55.75351501,48.74237753,0.00000000,
15.760633,-0.7248,-1.3519,-1.2124,55.75351501,48.74237753,0.00000000,
15.763805,-0.7248,-1.3519,-1.2124,55.75351501,48.74237753,0.00000000,
15.765915,-0.4366,-1.2233,-1.8881,55.75351501,48.74237753,0.00000000,
15.768443,-0.4366,-1.2233,-1.8881,55.75351501,48.74237753,0.00000000,
15.776021,-0.4366,-1.2233,-1.8881,55.75351501,48.74237753,0.00000000,
15.825166,-0.4366,-1.2233,-1.8881,55.75351501,48.74237753,0.00000000,
15.828789,-0.4366,-1.2233,-1.8881,55.75351501,48.74237753,0.00000000,
15.830945,-0.4366,-1.2233,-1.8881,55.75351501,48.74237753,0.00000000,
15.833307,-0.6077,-0.8420,-0.9709,55.75351501,48.74237753,0.00000000,
15.843622,-0.6077,-0.8420,-0.9709,55.75351501,48.74237753,0.00000000,
15.894096,-0.6077,-0.8420,-0.9709,55.75351501,48.74237753,0.00000000,
15.897286,-0.6077,-0.8420,-0.9709,55.75351501,48.74237753,0.00000000,
15.899053,-0.5956,-0.6718,0.4635,55.75351501,48.74237753,0.00000000,
15.901168,-0.5956,-0.6718,0.4635,55.75351501,48.74237753,0.00000000,
15.902642,-0.5956,-0.6718,0.4635,55.75351501,48.74237753,0.00000000,
15.962072,-0.5956,-0.6718,0.4635,55.75351501,48.74237753,0.00000000,
15.965598,-1.5648,0.1836,1.1393,55.75351501,48.74237753,0.00000000,
15.968240,-1.5648,0.1836,1.1393,55.75351501,48.74237753,0.00000000,
15.969691,-1.5648,0.1836,1.1393,55.75351501,48.74237753,0.00000000,
15.971331,-1.5648,0.1836,1.1393,55.75351501,48.74237753,0.00000000,
15.990304,-1.5648,0.1836,1.1393,55.75351501,48.74237753,0.00000000,
16.030126,-1.5648,0.1836,1.1393,55.75351501,48.74237753,0.00000000,
16.032050,-1.5648,0.1836,1.1393,55.75351501,48.74237753,0.00000000,
16.034413,-1.5648,0.1836,1.1393,55.75351501,48.74237753,0.00000000,
16.035988,-0.3700,-2.0606,5.1383,55.75351501,48.74237753,0.00000000,
16.038521,-0.3700,-2.0606,5.1383,55.75351501,48.74237753,0.00000000,
16.098631,-0.3700,-2.0606,5.1383,55.75351501,48.74237753,0.00000000,
16.100742,-0.3700,-2.0606,5.1383,55.75351501,48.74237753,0.00000000,
16.101785,-0.3700,-2.0606,5.1383,55.75351501,48.74237753,0.00000000,
16.102729,-0.3700,-2.0606,5.1383,55.75351501,48.74237753,0.00000000,
16.104330,-1.9020,-0.6623,-2.9618,55.75351501,48.74237753,0.00000000,
16.117258,-1.9020,-0.6623,-2.9618,55.75351501,48.74237753,0.00000000,
16.168107,-1.9020,-0.6623,-2.9618,55.75351501,48.74237753,0.00000000,
16.171531,-1.9020,-0.6623,-2.9618,55.75351501,48.74237753,0.00000000,
16.174104,-1.9983,-0.7403,-1.8782,55.75351501,48.74237753,0.00000000,
16.177584,-1.9983,-0.7403,-1.8782,55.75351501,48.74237753,0.00000000,
16.179795,-1.9983,-0.7403,-1.8782,55.75351501,48.74237753,0.00000000,
16.236524,-1.9983,-0.7403,-1.8782,55.75351501,48.74237753,0.00000000,
16.240038,-1.9983,-0.7403,-1.8782,55.75351501,48.74237753,0.00000000,
16.242086,-1.9983,-0.7403,-1.8782,55.75351501,48.74237753,0.00000000,
16.244880,-1.9983,-0.7403,-1.8782,55.75351501,48.74237753,0.00000000,
16.246890,0.6200,-0.1457,-1.1783,55.75351501,48.74237753,0.00000000,
16.305385,0.6200,-0.1457,-1.1783,55.75351501,48.74237753,0.00000000,
16.308348,0.6200,-0.1457,-1.1783,55.75351501,48.74237753,0.00000000,
16.310509,0.6200,-0.1457,-1.1783,55.75351501,48.74237753,0.00000000,
16.312422,0.9035,1.0165,-1.1265,55.75351501,48.74237753,0.00000000,
16.315369,0.9035,1.0165,-1.1265,55.75351501,48.74237753,0.00000000,
16.316952,0.9035,1.0165,-1.1265,55.75351501,48.74237753,0.00000000,
16.374202,1.1551,1.9472,0.8405,55.75351501,48.74237753,0.00000000,
16.377095,1.1551,1.9472,0.8405,55.75351501,48.74237753,0.00000000,
16.378226,1.1551,1.9472,0.8405,55.75351501,48.74237753,0.00000000,
16.379279,1.1551,1.9472,0.8405,55.75351501,48.74237753,0.00000000,
16.380320,1.1551,1.9472,0.8405,55.75351501,48.74237753,0.00000000,
16.442199,1.1551,1.9472,0.8405,55.75351501,48.74237753,0.00000000,
16.444905,1.1551,1.9472,0.8405,55.75351501,48.74237753,0.00000000,
16.446077,1.1551,1.9472,0.8405,55.75351501,48.74237753,0.00000000,
16.447179,1.1551,1.9472,0.8405,55.75351501,48.74237753,0.00000000,
16.448323,0.8571,2.1575,2.8796,55.75351501,48.74237753,0.00000000,
16.450256,0.8571,2.1575,2.8796,55.75351501,48.74237753,0.00000000,
16.510265,0.8571,2.1575,2.8796,55.75351501,48.74237753,0.00000000,
16.512510,0.8571,2.1575,2.8796,55.75351501,48.74237753,0.00000000,
16.513966,0.8571,2.1575,2.8796,55.75351501,48.74237753,0.00000000,
16.515071,1.4776,2.6341,0.9970,55.75351501,48.74237753,0.00000000,
16.516736,1.4776,2.6341,0.9970,55.75351501,48.74237753,0.00000000,
16.576075,1.4776,2.6341,0.9970,55.75351501,48.74237753,0.00000000,
16.578135,1.4776,2.6341,0.9970,55.75351501,48.74237753,0.00000000,
16.579299,1.4776,2.6341,0.9970,55.75351501,48.74237753,0.00000000,
16.580429,1.4776,2.6341,0.9970,55.75351501,48.74237753,0.00000000,
16.581489,1.4776,2.6341,0.9970,55.75351501,48.74237753,0.00000000,
16.582569,3.5271,-0.0713,2.7944,55.75351501,48.74237753,0.00000000,
16.643444,3.5271,-0.0713,2.7944,55.75351501,48.74237753,0.00000000,
16.646249,3.5271,-0.0713,2.7944,55.75351501,48.74237753,0.00000000,
16.648037,3.5271,-0.0713,2.7944,55.75351501,48.74237753,0.00000000,
16.649602,3.5271,-0.0713,2.7944,55.75351501,48.74237753,0.00000000,
16.651039,2.2876,-0.3771,0.0053,55.75351501,48.74237753,0.00000000,
16.709981,2.2876,-0.3771,0.0053,55.75351501,48.74237753,0.00000000,
16.713067,2.2876,-0.3771,0.0053,55.75351501,48.74237753,0.00000000,
16.714185,2.2876,-0.3771,0.0053,55.75351501,48.74237753,0.00000000,
16.716227,2.2876,-0.3771,0.0053,55.75351501,48.74237753,0.00000000,
16.717496,2.2876,-0.3771,0.0053,55.75351501,48.74237753,0.00000000,
16.718349,-0.4484,-1.3765,0.0193,55.75351501,48.74237753,0.00000000,
16.775189,-0.4484,-1.3765,0.0193,55.75351501,48.74237753,0.00000000,
16.776803,-0.4484,-1.3765,0.0193,55.75351501,48.74237753,0.00000000,
16.777465,-0.4484,-1.3765,0.0193,55.75351501,48.74237753,0.00000000,
16.784526,-0.4484,-1.3765,0.0193,55.75351501,48.74237753,0.00000000,
16.785973,-0.3038,-1.8055,-1.2393,55.75351501,48.74237753,0.00000000,
16.843441,-0.3038,-1.8055,-1.2393,55.75351501,48.74237753,0.00000000,
16.845611,-0.3038,-1.8055,-1.2393,55.75351501,48.74237753,0.00000000,
16.846551,-0.3038,-1.8055,-1.2393,55.75351501,48.74237753,0.00000000,
16.853178,-0.3038,-1.8055,-1.2393,55.75351501,48.74237753,0.00000000,
16.854606,-0.7058,-1.4274,-2.0961,55.75351501,48.74237753,0.00000000,
16.855813,-0.7058,-1.4274,-2.0961,55.75351501,48.74237753,0.00000000,
16.909720,-0.7058,-1.4274,-2.0961,55.75351501,48.74237753,0.00000000,
16.913537,-0.7058,-1.4274,-2.0961,55.75351501,48.74237753,0.00000000,
16.923185,-0.7058,-1.4274,-2.0961,55.75351501,48.74237753,0.00000000,
16.926134,-0.2220,-1.2174,-0.6184,55.75351501,48.74237753,0.00000000,
16.928768,-0.2220,-1.2174,-0.6184,55.75351501,48.74237753,0.00000000,
16.976451,-0.2220,-1.2174,-0.6184,55.75351501,48.74237753,0.00000000,
16.980161,-0.2220,-1.2174,-0.6184,55.75351501,48.74237753,0.00000000,
16.984607,-0.2220,-1.2174,-0.6184,55.75351501,48.74237753,0.00000000,
16.991653,-0.2220,-1.2174,-0.6184,55.75351501,48.74237753,0.00000000,
16.996125,-0.2220,-1.2174,-0.6184,55.75351501,48.74237753,0.00000000,
16.998678,-1.8809,-2.0203,0.8440,55.75351501,48.74237753,0.00000000,
17.020369,-1.8809,-2.0203,0.8440,55.75351501,48.74237753,0.00000000,
17.034568,-1.8809,-2.0203,0.8440,55.75351501,48.74237753,0.00000000,
17.058682,-1.8809,-2.0203,0.8440,55.75351501,48.74237753,0.00000000,
17.059942,-1.8809,-2.0203,0.8440,55.75351501,48.74237753,0.00000000,
17.060603,-1.8301,0.0769,-2.3708,55.75351501,48.74237753,0.00000000,
17.108632,-1.8301,0.0769,-2.3708,55.75351501,48.74237753,0.00000000,
17.109898,-1.8301,0.0769,-2.3708,55.75351501,48.74237753,0.00000000,
17.110615,-1.8301,0.0769,-2.3708,55.75351501,48.74237753,0.00000000,
17.127842,-1.8301,0.0769,-2.3708,55.75351501,48.74237753,0.00000000,
17.129347,0.6434,-1.6236,7.9881,55.75351501,48.74237753,0.00000000,
17.130468,0.6434,-1.6236,7.9881,55.75351501,48.74237753,0.00000000,
17.178376,0.6434,-1.6236,7.9881,55.75351501,48.74237753,0.00000000,
17.180669,0.6434,-1.6236,7.9881,55.75351501,48.74237753,0.00000000,
17.196985,0.6434,-1.6236,7.9881,55.75351501,48.74237753,0.00000000,
17.199429,-4.2404,0.2087,-2.6170,55.75351501,48.74237753,0.00000000,
17.203261,-4.2404,0.2087,-2.6170,55.75351501,48.74237753,0.00000000,
17.242218,-4.2404,0.2087,-2.6170,55.75351501,48.74237753,0.00000000,
17.246098,-4.2404,0.2087,-2.6170,55.75351501,48.74237753,0.00000000,
17.265912,-4.2404,0.2087,-2.6170,55.75351501,48.74237753,0.00000000,
17.269064,-4.2404,0.2087,-2.6170,55.75351501,48.74237753,0.00000000,
17.271235,-4.2404,0.2087,-2.6170,55.75351501,48.74237753,0.00000000,
17.273238,-1.8347,-0.8459,-1.7713,55.75351501,48.74237753,0.00000000,
17.309612,-1.8347,-0.8459,-1.7713,55.75351501,48.74237753,0.00000000,
17.313350,-1.8347,-0.8459,-1.7713,55.75351501,48.74237753,0.00000000,
17.335167,-1.8347,-0.8459,-1.7713,55.75351501,48.74237753,0.00000000,
17.338866,-1.8347,-0.8459,-1.7713,55.75351501,48.74237753,0.00000000,
17.341011,1.3685,-0.1257,-1.8542,55.75351501,48.74237753,0.00000000,
17.375555,1.3685,-0.1257,-1.8542,55.75351501,48.74237753,0.00000000,
17.377806,1.3685,-0.1257,-1.8542,55.75351501,48.74237753,0.00000000,
17.403908,1.3685,-0.1257,-1.8542,55.75351501,48.74237753,0.00000000,
17.407691,1.2175,1.1168,-1.5248,55.75351501,48.74237753,0.00000000,
17.410853,1.2175,1.1168,-1.5248,55.75351501,48.74237753,0.00000000,
17.412469,1.2175,1.1168,-1.5248,55.75351501,48.74237753,0.00000000,
17.442618,1.2175,1.1168,-1.5248,55.75351501,48.74237753,0.00000000,
17.444620,1.2175,1.1168,-1.5248,55.75351501,48.74237753,0.00000000,
17.470994,1.2175,1.1168,-1.5248,55.75351501,48.74237753,0.00000000,
17.472786,1.2175,1.1168,-1.5248,55.75351501,48.74237753,0.00000000,
17.474605,1.7022,2.0675,0.2335,55.75351501,48.74237753,0.00000000,
17.500548,1.7022,2.0675,0.2335,55.75351501,48.74237753,0.00000000,
17.502074,1.7022,2.0675,0.2335,55.75351501,48.74237753,0.00000000,
17.540685,1.7022,2.0675,0.2335,55.75351501,48.74237753,0.00000000,
17.543664,1.7022,2.0675,0.2335,55.75351501,48.74237753,0.00000000,
17.545060,1.8138,2.3275,1.9990,55.75351501,48.74237753,0.00000000,
17.547099,1.8138,2.3275,1.9990,55.75351501,48.74237753,0.00000000,
17.576352,1.8138,2.3275,1.9990,55.75351501,48.74237753,0.00000000,
17.608957,1.8138,2.3275,1.9990,55.75351501,48.74237753,0.00000000,
17.611337,1.8138,2.3275,1.9990,55.75351501,48.74237753,0.00000000,
17.612602,1.4803,2.7569,1.9397,55.75351501,48.74237753,0.00000000,
17.615260,1.4803,2.7569,1.9397,55.75351501,48.74237753,0.00000000,
17.643277,1.4803,2.7569,1.9397,55.75351501,48.74237753,0.00000000,
17.645799,1.4803,2.7569,1.9397,55.75351501,48.74237753,0.00000000,
17.677948,1.4803,2.7569,1.9397,55.75351501,48.74237753,0.00000000,
17.680181,1.4803,2.7569,1.9397,55.75351501,48.74237753,0.00000000,
17.681484,2.4701,-0.8732,3.8225,55.75351501,48.74237753,0.00000000,
17.684291,2.4701,-0.8732,3.8225,55.75351501,48.74237753,0.00000000,
17.710229,2.4701,-0.8732,3.8225,55.75351501,48.74237753,0.00000000,
17.745550,2.4701,-0.8732,3.8225,55.75351501,48.74237753,0.00000000,
17.747689,2.4701,-0.8732,3.8225,55.75351501,48.74237753,0.00000000,
17.748659,2.4701,-0.8732,3.8225,55.75351501,48.74237753,0.00000000,
17.749537,2.2129,-0.6029,-1.2610,55.75351501,48.74237753,0.00000000,
17.776369,2.2129,-0.6029,-1.2610,55.75351501,48.74237753,0.00000000,
17.779309,2.2129,-0.6029,-1.2610,55.75351501,48.74237753,0.00000000,
17.814980,2.2129,-0.6029,-1.2610,55.75351501,48.74237753,0.00000000,
17.818007,2.2129,-0.6029,-1.2610,55.75351501,48.74237753,0.00000000,
17.819791,2.2129,-0.6029,-1.2610,55.75351501,48.74237753,0.00000000,
17.821632,0.3463,-1.6184,0.4789,55.75351501,48.74237753,0.00000000,
17.843857,0.3463,-1.6184,0.4789,55.75351501,48.74237753,0.00000000,
17.883487,0.3463,-1.6184,0.4789,55.75351501,48.74237753,0.00000000,
17.886041,0.3463,-1.6184,0.4789,55.75351501,48.74237753,0.00000000,
17.887887,0.3463,-1.6184,0.4789,55.75351501,48.74237753,0.00000000,
17.889438,-0.1381,-2.4604,0.3159,55.75351501,48.74237753,0.00000000,
17.910209,-0.1381,-2.4604,0.3159,55.75351501,48.74237753,0.00000000,
17.951331,-0.1381,-2.4604,0.3159,55.75351501,48.74237753,0.00000000,
17.954522,-0.1381,-2.4604,0.3159,55.75351501,48.74237753,0.00000000,
17.956585,-0.1381,-2.4604,0.3159,55.75351501,48.74237753,0.00000000,
17.958387,-0.8832,-1.9904,-1.8880,55.75351501,48.74237753,0.00000000,
17.961227,-0.8832,-1.9904,-1.8880,55.75351501,48.74237753,0.00000000,
17.977507,-0.8832,-1.9904,-1.8880,55.75351501,48.74237753,0.00000000,
18.020495,-0.8832,-1.9904,-1.8880,55.75351501,48.74237753,0.00000000,
18.024269,-0.8832,-1.9904,-1.8880,55.75351501,48.74237753,0.00000000,
18.026499,-0.3785,-1.1586,-1.2902,55.75351501,48.74237753,0.00000000,
18.029260,-0.3785,-1.1586,-1.2902,55.75351501,48.74237753,0.00000000,
18.035314,-0.3785,-1.1586,-1.2902,55.75351501,48.74237753,0.00000000,
18.088880,-0.3785,-1.1586,-1.2902,55.75351501,48.74237753,0.00000000,
18.091679,-0.3785,-1.1586,-1.2902,55.75351501,48.74237753,0.00000000,
18.093411,-0.3785,-1.1586,-1.2902,55.75351501,48.74237753,0.00000000,
18.094742,-0.3785,-1.1586,-1.2902,55.75351501,48.74237753,0.00000000,
18.095768,-0.7957,-0.2741,-0.7905,55.75351501,48.74237753,0.00000000,
18.108735,-0.7957,-0.2741,-0.7905,55.75351501,48.74237753,0.00000000,
18.130235,-0.7957,-0.2741,-0.7905,55.75351501,48.74237753,0.00000000,
18.157757,-0.7957,-0.2741,-0.7905,55.75351501,48.74237753,0.00000000,
18.162960,-0.3491,0.7875,0.5248,55.75351501,48.74237753,0.00000000,
18.165501,-0.3491,0.7875,0.5248,55.75351501,48.74237753,0.00000000,
18.177401,-0.3491,0.7875,0.5248,55.75351501,48.74237753,0.00000000,
18.226312,-0.3491,0.7875,0.5248,55.75351501,48.74237753,0.00000000,
18.228301,-0.3491,0.7875,0.5248,55.75351501,48.74237753,0.00000000,
18.229539,-0.3491,0.7875,0.5248,55.75351501,48.74237753,0.00000000,
18.230534,-2.9950,-0.1596,2.9774,55.75351501,48.74237753,0.00000000,
18.232272,-2.9950,-0.1596,2.9774,55.75351501,48.74237753,0.00000000,
18.295403,-0.8140,-1.3599,2.5925,55.75351501,48.74237753,0.00000000,
18.299180,-0.8140,-1.3599,2.5925,55.75351501,48.74237753,0.00000000,
18.300887,-0.8140,-1.3599,2.5925,55.75351501,48.74237753,0.00000000,
18.302512,-0.8140,-1.3599,2.5925,55.75351501,48.74237753,0.00000000,
18.304504,-0.8140,-1.3599,2.5925,55.75351501,48.74237753,0.00000000,
18.309157,-0.8140,-1.3599,2.5925,55.75351501,48.74237753,0.00000000,
18.363822,-0.8140,-1.3599,2.5925,55.75351501,48.74237753,0.00000000,
18.367200,-0.8140,-1.3599,2.5925,55.75351501,48.74237753,0.00000000,
18.369358,-0.8140,-1.3599,2.5925,55.75351501,48.74237753,0.00000000,
18.371199,-2.8545,-0.9370,-2.2502,55.75351501,48.74237753,0.00000000,
18.374797,-2.8545,-0.9370,-2.2502,55.75351501,48.74237753,0.00000000,
18.432284,-2.8545,-0.9370,-2.2502,55.75351501,48.74237753,0.00000000,
18.435713,-2.8545,-0.9370,-2.2502,55.75351501,48.74237753,0.00000000,
18.437457,-2.8545,-0.9370,-2.2502,55.75351501,48.74237753,0.00000000,
18.439117,-2.8545,-0.9370,-2.2502,55.75351501,48.74237753,0.00000000,
18.440773,-0.1114,-0.9824,-1.1604,55.75351501,48.74237753,0.00000000,
18.443520,-0.1114,-0.9824,-1.1604,55.75351501,48.74237753,0.00000000,
18.500328,-0.1114,-0.9824,-1.1604,55.75351501,48.74237753,0.00000000,
18.502879,-0.1114,-0.9824,-1.1604,55.75351501,48.74237753,0.00000000,
18.504398,-0.1114,-0.9824,-1.1604,55.75351501,48.74237753,0.00000000,
18.505595,0.7091,0.1053,-1.8070,55.75351501,48.74237753,0.00000000,
18.507014,0.7091,0.1053,-1.8070,55.75351501,48.74237753,0.00000000,
18.569463,0.7091,0.1053,-1.8070,55.75351501,48.74237753,0.00000000,
18.572023,1.0251,1.2977,-0.5582,55.75351501,48.74237753,0.00000000,
18.574655,1.0251,1.2977,-0.5582,55.75351501,48.74237753,0.00000000,
18.576329,1.0251,1.2977,-0.5582,55.75351501,48.74237753,0.00000000,
18.577769,1.0251,1.2977,-0.5582,55.75351501,48.74237753,0.00000000,
18.619413,1.0251,1.2977,-0.5582,55.75351501,48.74237753,0.00000000,
18.622595,1.0251,1.2977,-0.5582,55.75351501,48.74237753,0.00000000,
18.624882,1.0251,1.2977,-0.5582,55.75351501,48.74237753,0.00000000,
18.638364,1.0251,1.2977,-0.5582,55.75351501,48.74237753,0.00000000,
18.641233,1.0251,1.2977,-0.5582,55.75351501,48.74237753,0.00000000,
18.643111,1.9402,2.0662,0.2763,55.75351501,48.74237753,0.00000000,
18.706370,1.9402,2.0662,0.2763,55.75351501,48.74237753,0.00000000,
18.708531,1.9402,2.0662,0.2763,55.75351501,48.74237753,0.00000000,
18.709724,1.9402,2.0662,0.2763,55.75351501,48.74237753,0.00000000,
18.710873,1.9402,2.0662,0.2763,55.75351501,48.74237753,0.00000000,
18.711983,0.7896,1.6743,1.3702,55.75351501,48.74237753,0.00000000,
18.775349,1.4257,2.0077,-0.2047,55.75351501,48.74237753,0.00000000,
18.778898,1.4257,2.0077,-0.2047,55.75351501,48.74237753,0.00000000,
18.780494,1.4257,2.0077,-0.2047,55.75351501,48.74237753,0.00000000,
18.781942,1.4257,2.0077,-0.2047,55.75351501,48.74237753,0.00000000,
18.784002,1.4257,2.0077,-0.2047,55.75351501,48.74237753,0.00000000,
18.785537,1.4257,2.0077,-0.2047,55.75351501,48.74237753,0.00000000,
18.843856,1.4257,2.0077,-0.2047,55.75351501,48.74237753,0.00000000,
18.846756,1.4257,2.0077,-0.2047,55.75351501,48.74237753,0.00000000,
18.848288,1.4257,2.0077,-0.2047,55.75351501,48.74237753,0.00000000,
18.849681,1.4257,2.0077,-0.2047,55.75351501,48.74237753,0.00000000,
18.851116,2.5367,-0.5567,1.9693,55.75351501,48.74237753,0.00000000,
18.909308,2.5367,-0.5567,1.9693,55.75351501,48.74237753,0.00000000,
18.913426,2.5367,-0.5567,1.9693,55.75351501,48.74237753,0.00000000,
18.915328,2.5367,-0.5567,1.9693,55.75351501,48.74237753,0.00000000,
18.916821,2.5367,-0.5567,1.9693,55.75351501,48.74237753,0.00000000,
18.918149,1.8270,0.2261,-1.4559,55.75351501,48.74237753,0.00000000,
18.920021,1.8270,0.2261,-1.4559,55.75351501,48.74237753,0.00000000,
18.976414,1.8270,0.2261,-1.4559,55.75351501,48.74237753,0.00000000,
18.979129,1.8270,0.2261,-1.4559,55.75351501,48.74237753,0.00000000,
18.980806,1.8270,0.2261,-1.4559,55.75351501,48.74237753,0.00000000,
18.982322,1.8270,0.2261,-1.4559,55.75351501,48.74237753,0.00000000,
18.983999,-0.6112,-2.3460,3.3578,55.75351501,48.74237753,0.00000000,
19.034522,-0.6112,-2.3460,3.3578,55.75351501,48.74237753,0.00000000,
19.036849,-0.6112,-2.3460,3.3578,55.75351501,48.74237753,0.00000000,
19.037923,-0.6112,-2.3460,3.3578,55.75351501,48.74237753,0.00000000,
19.049420,-0.6112,-2.3460,3.3578,55.75351501,48.74237753,0.00000000,
19.051612,-1.5512,-2.3786,-1.2023,55.75351501,48.74237753,0.00000000,
19.054014,-1.5512,-2.3786,-1.2023,55.75351501,48.74237753,0.00000000,
19.109058,-1.5512,-2.3786,-1.2023,55.75351501,48.74237753,0.00000000,
19.111258,-1.5512,-2.3786,-1.2023,55.75351501,48.74237753,0.00000000,
19.112425,-1.5512,-2.3786,-1.2023,55.75351501,48.74237753,0.00000000,
19.118176,-1.5512,-2.3786,-1.2023,55.75351501,48.74237753,0.00000000,
19.120749,-1.2652,-1.0900,-2.5376,55.75351501,48.74237753,0.00000000,
19.175869,-1.2652,-1.0900,-2.5376,55.75351501,48.74237753,0.00000000,
19.177852,-1.2652,-1.0900,-2.5376,55.75351501,48.74237753,0.00000000,
19.178867,-1.2652,-1.0900,-2.5376,55.75351501,48.74237753,0.00000000,
19.186055,-1.2652,-1.0900,-2.5376,55.75351501,48.74237753,0.00000000,
19.187980,-1.2652,-1.0900,-2.5376,55.75351501,48.74237753,0.00000000,
19.188977,-0.0030,-0.1253,0.4676,55.75351501,48.74237753,0.00000000,
19.242751,-0.0030,-0.1253,0.4676,55.75351501,48.74237753,0.00000000,
19.247070,-0.0030,-0.1253,0.4676,55.75351501,48.74237753,0.00000000,
19.255801,-0.0030,-0.1253,0.4676,55.75351501,48.74237753,0.00000000,
19.258017,-0.0030,-0.1253,0.4676,55.75351501,48.74237753,0.00000000,
19.259839,0.1845,0.8330,-0.7877,55.75351501,48.74237753,0.00000000,
19.277346,0.1845,0.8330,-0.7877,55.75351501,48.74237753,0.00000000,
19.308703,0.1845,0.8330,-0.7877,55.75351501,48.74237753,0.00000000,
19.310432,0.1845,0.8330,-0.7877,55.75351501,48.74237753,0.00000000,
19.324228,0.1845,0.8330,-0.7877,55.75351501,48.74237753,0.00000000,
19.326899,0.1845,0.8330,-0.7877,55.75351501,48.74237753,0.00000000,
19.328653,0.9393,1.0686,0.8668,55.75351501,48.74237753,0.00000000,
19.376122,0.9393,1.0686,0.8668,55.75351501,48.74237753,0.00000000,
19.377928,0.9393,1.0686,0.8668,55.75351501,48.74237753,0.00000000,
19.392533,0.9393,1.0686,0.8668,55.75351501,48.74237753,0.00000000,
19.394932,-2.2644,0.1167,0.9352,55.75351501,48.74237753,0.00000000,
19.397756,-2.2644,0.1167,0.9352,55.75351501,48.74237753,0.00000000,
19.441815,-2.2644,0.1167,0.9352,55.75351501,48.74237753,0.00000000,
19.443315,-2.2644,0.1167,0.9352,55.75351501,48.74237753,0.00000000,
19.444062,-2.2644,0.1167,0.9352,55.75351501,48.74237753,0.00000000,
19.460664,-2.2644,0.1167,0.9352,55.75351501,48.74237753,0.00000000,
19.462336,-2.2644,0.1167,0.9352,55.75351501,48.74237753,0.00000000,
19.463343,0.9989,-1.9448,3.2276,55.75351501,48.74237753,0.00000000,
19.510123,0.9989,-1.9448,3.2276,55.75351501,48.74237753,0.00000000,
19.512598,0.9989,-1.9448,3.2276,55.75351501,48.74237753,0.00000000,
19.529273,0.9989,-1.9448,3.2276,55.75351501,48.74237753,0.00000000,
19.531115,0.9989,-1.9448,3.2276,55.75351501,48.74237753,0.00000000,
19.531985,-2.2483,-0.7158,-3.3297,55.75351501,48.74237753,0.00000000,
19.575262,-2.2483,-0.7158,-3.3297,55.75351501,48.74237753,0.00000000,
19.577412,-2.2483,-0.7158,-3.3297,55.75351501,48.74237753,0.00000000,
19.598143,-2.2483,-0.7158,-3.3297,55.75351501,48.74237753,0.00000000,
19.600752,-2.2483,-0.7158,-3.3297,55.75351501,48.74237753,0.00000000,
19.602375,-0.8787,-0.6921,-0.1829,55.75351501,48.74237753,0.00000000,
19.604854,-0.8787,-0.6921,-0.1829,55.75351501,48.74237753,0.00000000,
19.642762,-0.8787,-0.6921,-0.1829,55.75351501,48.74237753,0.00000000,
19.646472,-0.8787,-0.6921,-0.1829,55.75351501,48.74237753,0.00000000,
19.667433,-0.8787,-0.6921,-0.1829,55.75351501,48.74237753,0.00000000,
19.671798,-0.8787,-0.6921,-0.1829,55.75351501,48.74237753,0.00000000,
19.674995,-0.1170,0.4833,-1.8097,55.75351501,48.74237753,0.00000000,
19.708539,-0.1170,0.4833,-1.8097,55.75351501,48.74237753,0.00000000,
19.710300,-0.1170,0.4833,-1.8097,55.75351501,48.74237753,0.00000000,
19.735213,-0.1170,0.4833,-1.8097,55.75351501,48.74237753,0.00000000,
19.737259,-0.1170,0.4833,-1.8097,55.75351501,48.74237753,0.00000000,
19.738306,0.4826,1.3328,-0.9267,55.75351501,48.74237753,0.00000000,
19.739394,0.4826,1.3328,-0.9267,55.75351501,48.74237753,0.00000000,
19.774143,0.4826,1.3328,-0.9267,55.75351501,48.74237753,0.00000000,
19.775676,0.4826,1.3328,-0.9267,55.75351501,48.74237753,0.00000000,
19.803773,0.4826,1.3328,-0.9267,55.75351501,48.74237753,0.00000000,
19.805258,0.4826,1.3328,-0.9267,55.75351501,48.74237753,0.00000000,
19.805962,0.8640,2.3416,-0.2965,55.75351501,48.74237753,0.00000000,
19.843198,0.8640,2.3416,-0.2965,55.75351501,48.74237753,0.00000000,
19.845499,0.8640,2.3416,-0.2965,55.75351501,48.74237753,0.00000000,
19.873666,0.8640,2.3416,-0.2965,55.75351501,48.74237753,0.00000000,
19.876174,0.8640,2.3416,-0.2965,55.75351501,48.74237753,0.00000000,
19.877708,0.8640,2.3416,-0.2965,55.75351501,48.74237753,0.00000000,
19.879246,1.6360,2.0031,1.8431,55.75351501,48.74237753,0.00000000,
19.908503,1.6360,2.0031,1.8431,55.75351501,48.74237753,0.00000000,
19.941683,1.6360,2.0031,1.8431,55.75351501,48.74237753,0.00000000,
19.944011,1.6360,2.0031,1.8431,55.75351501,48.74237753,0.00000000,
19.945158,1.1238,2.0788,0.4724,55.75351501,48.74237753,0.00000000,
19.946993,1.1238,2.0788,0.4724,55.75351501,48.74237753,0.00000000,
19.976035,1.1238,2.0788,0.4724,55.75351501,48.74237753,0.00000000,
19.978022,1.1238,2.0788,0.4724,55.75351501,48.74237753,0.00000000,
20.011251,1.1238,2.0788,0.4724,55.75351501,48.74237753,0.00000000,
20.013956,1.1238,2.0788,0.4724,55.75351501,48.74237753,0.00000000,
20.015162,1.1238,2.0788,0.4724,55.75351501,48.74237753,0.00000000,
20.017387,3.2956,-1.8076,2.8188,55.75351501,48.74237753,0.00000000,
20.035385,3.2956,-1.8076,2.8188,55.75351501,48.74237753,0.00000000,
20.079558,3.2956,-1.8076,2.8188,55.75351501,48.74237753,0.00000000,
20.081211,3.2956,-1.8076,2.8188,55.75351501,48.74237753,0.00000000,
20.082218,3.2956,-1.8076,2.8188,55.75351501,48.74237753,0.00000000,
20.083164,0.6586,-1.0732,-2.4874,55.75351501,48.74237753,0.00000000,
20.108455,0.6586,-1.0732,-2.4874,55.75351501,48.74237753,0.00000000,
20.109720,0.6586,-1.0732,-2.4874,55.75351501,48.74237753,0.00000000,
20.147285,0.6586,-1.0732,-2.4874,55.75351501,48.74237753,0.00000000,
20.149648,0.6586,-1.0732,-2.4874,55.75351501,48.74237753,0.00000000,
20.151162,0.6586,-1.0732,-2.4874,55.75351501,48.74237753,0.00000000,
20.152678,-1.5642,-1.1350,0.2058,55.75351501,48.74237753,0.00000000,
20.180328,-1.5642,-1.1350,0.2058,55.75351501,48.74237753,0.00000000,
20.216464,-1.5642,-1.1350,0.2058,55.75351501,48.74237753,0.00000000,
20.219328,-1.5642,-1.1350,0.2058,55.75351501,48.74237753,0.00000000,
20.221196,-1.5642,-1.1350,0.2058,55.75351501,48.74237753,0.00000000,
20.223055,-0.6414,-0.5106,-0.4321,55.75351501,48.74237753,0.00000000,
20.246530,-0.6414,-0.5106,-0.4321,55.75351501,48.74237753,0.00000000,
20.284583,-0.6414,-0.5106,-0.4321,55.75351501,48.74237753,0.00000000,
20.287167,0.1780,-0.1710,-0.2423,55.75351501,48.74237753,0.00000000,
20.289059,0.1780,-0.1710,-0.2423,55.75351501,48.74237753,0.00000000,
20.290290,0.1780,-0.1710,-0.2423,55.75351501,48.74237753,0.00000000,
20.291494,0.1780,-0.1710,-0.2423,55.75351501,48.74237753,0.00000000,
20.314041,0.1780,-0.1710,-0.2423,55.75351501,48.74237753,0.00000000,
20.352770,0.1780,-0.1710,-0.2423,55.75351501,48.74237753,0.00000000,
20.355694,0.0977,-0.5079,0.1344,55.75351501,48.74237753,0.00000000,
20.357867,0.0977,-0.5079,0.1344,55.75351501,48.74237753,0.00000000,
20.359232,0.0977,-0.5079,0.1344,55.75351501,48.74237753,0.00000000,
20.377959,0.0977,-0.5079,0.1344,55.75351501,48.74237753,0.00000000,
20.402978,0.0977,-0.5079,0.1344,55.75351501,48.74237753,0.00000000,
20.404635,0.0977,-0.5079,0.1344,55.75351501,48.74237753,0.00000000,
20.420991,0.0977,-0.5079,0.1344,55.75351501,48.74237753,0.00000000,
20.422368,0.0977,-0.5079,0.1344,55.75351501,48.74237753,0.00000000,
20.423396,-0.3637,-0.4080,0.8004,55.75351501,48.74237753,0.00000000,
20.442005,-0.3637,-0.4080,0.8004,55.75351501,48.74237753,0.00000000,
20.490875,-0.3637,-0.4080,0.8004,55.75351501,48.74237753,0.00000000,
20.494405,-0.3637,-0.4080,0.8004,55.75351501,48.74237753,0.00000000,
20.496343,-0.3637,-0.4080,0.8004,55.75351501,48.74237753,0.00000000,
20.497994,-0.9429,-0.2862,-0.6543,55.75351501,48.74237753,0.00000000,
20.515647,-0.9429,-0.2862,-0.6543,55.75351501,48.74237753,0.00000000,
20.559371,-0.9429,-0.2862,-0.6543,55.75351501,48.74237753,0.00000000,
20.563684,-0.9429,-0.2862,-0.6543,55.75351501,48.74237753,0.00000000,
20.566139,-0.9429,-0.2862,-0.6543,55.75351501,48.74237753,0.00000000,
20.568713,-0.9429,-0.2862,-0.6543,55.75351501,48.74237753,0.00000000,
20.571434,-1.9460,-2.8310,3.3145,55.75351501,48.74237753,0.00000000,
20.628243,-1.9460,-2.8310,3.3145,55.75351501,48.74237753,0.00000000,
20.631591,-1.9460,-2.8310,3.3145,55.75351501,48.74237753,0.00000000,
20.633954,-1.9460,-2.8310,3.3145,55.75351501,48.74237753,0.00000000,
20.635950,-1.9460,-2.8310,3.3145,55.75351501,48.74237753,0.00000000,
20.637680,-0.8125,-2.0331,-1.0207,55.75351501,48.74237753,0.00000000,
20.655543,-0.8125,-2.0331,-1.0207,55.75351501,48.74237753,0.00000000,
20.696490,-0.8125,-2.0331,-1.0207,55.75351501,48.74237753,0.00000000,
20.699733,-0.8125,-2.0331,-1.0207,55.75351501,48.74237753,0.00000000,
20.701696,-1.9490,-1.0311,-3.0032,55.75351501,48.74237753,0.00000000,
20.704839,-1.9490,-1.0311,-3.0032,55.75351501,48.74237753,0.00000000,
20.706805,-1.9490,-1.0311,-3.0032,55.75351501,48.74237753,0.00000000,
20.765642,-1.9490,-1.0311,-3.0032,55.75351501,48.74237753,0.00000000,
20.769072,-0.6500,0.5606,-1.4397,55.75351501,48.74237753,0.00000000,
20.772253,-0.6500,0.5606,-1.4397,55.75351501,48.74237753,0.00000000,
20.774597,-0.6500,0.5606,-1.4397,55.75351501,48.74237753,0.00000000,
20.776408,-0.6500,0.5606,-1.4397,55.75351501,48.74237753,0.00000000,
20.778176,-0.6500,0.5606,-1.4397,55.75351501,48.74237753,0.00000000,
20.833031,-0.6500,0.5606,-1.4397,55.75351501,48.74237753,0.00000000,
20.834716,-0.6500,0.5606,-1.4397,55.75351501,48.74237753,0.00000000,
20.835386,-0.6500,0.5606,-1.4397,55.75351501,48.74237753,0.00000000,
20.835985,-0.6500,0.5606,-1.4397,55.75351501,48.74237753,0.00000000,
20.836571,-0.0447,2.0804,-0.0108,55.75351501,48.74237753,0.00000000,
20.900992,-0.0447,2.0804,-0.0108,55.75351501,48.74237753,0.00000000,
20.901732,0.8893,2.6215,1.0945,55.75351501,48.74237753,0.00000000,
20.902074,0.8893,2.6215,1.0945,55.75351501,48.74237753,0.00000000,
20.902230,0.8893,2.6215,1.0945,55.75351501,48.74237753,0.00000000,
20.902381,0.8893,2.6215,1.0945,55.75351501,48.74237753,0.00000000,
20.969534,0.8893,2.6215,1.0945,55.75351501,48.74237753,0.00000000,
20.970067,0.8893,2.6215,1.0945,55.75351501,48.74237753,0.00000000,
20.970299,0.8893,2.6215,1.0945,55.75351501,48.74237753,0.00000000,
20.970519,0.8893,2.6215,1.0945,55.75351501,48.74237753,0.00000000,
20.970756,0.2689,3.1523,1.4071,55.75351501,48.74237753,0.00000000,
20.971149,0.2689,3.1523,1.4071,55.75351501,48.74237753,0.00000000,
21.035010,0.2689,3.1523,1.4071,55.75351501,48.74237753,0.00000000,
21.038218,0.2689,3.1523,1.4071,55.75351501,48.74237753,0.00000000,
21.039488,0.2689,3.1523,1.4071,55.75351501,48.74237753,0.00000000,
21.040808,0.2689,3.1523,1.4071,55.75351501,48.74237753,0.00000000,
21.041988,0.1065,4.0797,1.5167,55.75351501,48.74237753,0.00000000,
21.107505,0.1065,4.0797,1.5167,55.75351501,48.74237753,0.00000000,
21.109546,0.1065,4.0797,1.5167,55.75351501,48.74237753,0.00000000,
21.110323,0.1065,4.0797,1.5167,55.75351501,48.74237753,0.00000000,
21.111042,0.1065,4.0797,1.5167,55.75351501,48.74237753,0.00000000,
21.111710,2.7905,-0.7382,7.0374,55.75351501,48.74237753,0.00000000,
21.114069,2.7905,-0.7382,7.0374,55.75351501,48.74237753,0.00000000,
21.176672,3.5618,-1.9267,-1.3926,55.75351501,48.74237753,0.00000000,
21.180443,3.5618,-1.9267,-1.3926,55.75351501,48.74237753,0.00000000,
21.182368,3.5618,-1.9267,-1.3926,55.75351501,48.74237753,0.00000000,
21.184642,3.5618,-1.9267,-1.3926,55.75351501,48.74237753,0.00000000,
21.186318,3.5618,-1.9267,-1.3926,55.75351501,48.74237753,0.00000000,
21.243406,3.5618,-1.9267,-1.3926,55.75351501,48.74237753,0.00000000,
21.247363,3.5618,-1.9267,-1.3926,55.75351501,48.74237753,0.00000000,
21.249295,3.5618,-1.9267,-1.3926,55.75351501,48.74237753,0.00000000,
21.251139,3.5618,-1.9267,-1.3926,55.75351501,48.74237753,0.00000000,
21.253335,0.5115,-2.2778,-2.5140,55.75351501,48.74237753,0.00000000,
21.256001,0.5115,-2.2778,-2.5140,55.75351501,48.74237753,0.00000000,
21.309694,0.5115,-2.2778,-2.5140,55.75351501,48.74237753,0.00000000,
21.313134,0.5115,-2.2778,-2.5140,55.75351501,48.74237753,0.00000000,
21.315257,0.5115,-2.2778,-2.5140,55.75351501,48.74237753,0.00000000,
21.317113,0.5115,-2.2778,-2.5140,55.75351501,48.74237753,0.00000000,
21.318803,0.2360,-2.1034,-0.7605,55.75351501,48.74237753,0.00000000,
21.376406,0.2360,-2.1034,-0.7605,55.75351501,48.74237753,0.00000000,
21.379515,0.2360,-2.1034,-0.7605,55.75351501,48.74237753,0.00000000,
21.381726,0.2360,-2.1034,-0.7605,55.75351501,48.74237753,0.00000000,
21.384324,0.2360,-2.1034,-0.7605,55.75351501,48.74237753,0.00000000,
21.386076,0.2360,-2.1034,-0.7605,55.75351501,48.74237753,0.00000000,
21.387753,-0.2836,-1.0386,-1.0533,55.75351501,48.74237753,0.00000000,
21.443132,-0.2836,-1.0386,-1.0533,55.75351501,48.74237753,0.00000000,
21.446700,-0.2836,-1.0386,-1.0533,55.75351501,48.74237753,0.00000000,
21.448795,-0.2836,-1.0386,-1.0533,55.75351501,48.74237753,0.00000000,
21.451083,-0.2836,-1.0386,-1.0533,55.75351501,48.74237753,0.00000000,
21.453829,-1.1990,-0.0983,-0.1310,55.75351501,48.74237753,0.00000000,
21.501262,-1.1990,-0.0983,-0.1310,55.75351501,48.74237753,0.00000000,
21.505435,-1.1990,-0.0983,-0.1310,55.75351501,48.74237753,0.00000000,
21.508525,-1.1990,-0.0983,-0.1310,55.75351501,48.74237753,0.00000000,
21.522089,-1.1990,-0.0983,-0.1310,55.75351501,48.74237753,0.00000000,
21.526599,-1.1990,-0.0983,-0.1310,55.75351501,48.74237753,0.00000000,
21.529428,-0.1620,0.0138,1.4033,55.75351501,48.74237753,0.00000000,
21.575895,-0.1620,0.0138,1.4033,55.75351501,48.74237753,0.00000000,
21.577650,-0.1620,0.0138,1.4033,55.75351501,48.74237753,0.00000000,
21.589188,-0.1620,0.0138,1.4033,55.75351501,48.74237753,0.00000000,
21.590638,-0.1620,0.0138,1.4033,55.75351501,48.74237753,0.00000000,
21.591676,-0.2412,0.5459,-0.5686,55.75351501,48.74237753,0.00000000,
21.642686,-0.2412,0.5459,-0.5686,55.75351501,48.74237753,0.00000000,
21.646199,-0.2412,0.5459,-0.5686,55.75351501,48.74237753,0.00000000,
21.648275,-0.2412,0.5459,-0.5686,55.75351501,48.74237753,0.00000000,
21.656833,-0.2412,0.5459,-0.5686,55.75351501,48.74237753,0.00000000,
21.659757,-1.2281,-2.2446,4.8099,55.75351501,48.74237753,0.00000000,
21.662157,-1.2281,-2.2446,4.8099,55.75351501,48.74237753,0.00000000,
21.709868,-1.2281,-2.2446,4.8099,55.75351501,48.74237753,0.00000000,
21.713435,-1.2281,-2.2446,4.8099,55.75351501,48.74237753,0.00000000,
21.726253,-1.2281,-2.2446,4.8099,55.75351501,48.74237753,0.00000000,
21.729922,-1.2281,-2.2446,4.8099,55.75351501,48.74237753,0.00000000,
21.732254,-0.3465,-2.7180,-0.4685,55.75351501,48.74237753,0.00000000,
21.776449,-0.3465,-2.7180,-0.4685,55.75351501,48.74237753,0.00000000,
21.780251,-0.3465,-2.7180,-0.4685,55.75351501,48.74237753,0.00000000,
21.782673,-0.3465,-2.7180,-0.4685,55.75351501,48.74237753,0.00000000,
21.794724,-0.3465,-2.7180,-0.4685,55.75351501,48.74237753,0.00000000,
21.798260,-2.5848,-0.8495,-3.1004,55.75351501,48.74237753,0.00000000,
21.801250,-2.5848,-0.8495,-3.1004,55.75351501,48.74237753,0.00000000,
21.844037,-2.5848,-0.8495,-3.1004,55.75351501,48.74237753,0.00000000,
21.847589,-2.5848,-0.8495,-3.1004,55.75351501,48.74237753,0.00000000,
21.863546,-2.5848,-0.8495,-3.1004,55.75351501,48.74237753,0.00000000,
21.867610,-2.5848,-0.8495,-3.1004,55.75351501,48.74237753,0.00000000,
21.869971,0.2698,0.4757,-0.8746,55.75351501,48.74237753,0.00000000,
21.909782,0.2698,0.4757,-0.8746,55.75351501,48.74237753,0.00000000,
21.913404,0.2698,0.4757,-0.8746,55.75351501,48.74237753,0.00000000,
21.931013,0.2698,0.4757,-0.8746,55.75351501,48.74237753,0.00000000,
21.933257,-0.0064,1.1346,-0.0385,55.75351501,48.74237753,0.00000000,
21.935231,-0.0064,1.1346,-0.0385,55.75351501,48.74237753,0.00000000,
21.936633,-0.0064,1.1346,-0.0385,55.75351501,48.74237753,0.00000000,
21.976256,-0.0064,1.1346,-0.0385,55.75351501,48.74237753,0.00000000,
21.979362,-0.0064,1.1346,-0.0385,55.75351501,48.74237753,0.00000000,
22.000383,-0.0064,1.1346,-0.0385,55.75351501,48.74237753,0.00000000,
22.003941,0.0865,1.0023,0.5028,55.75351501,48.74237753,0.00000000,
22.006247,0.0865,1.0023,0.5028,55.75351501,48.74237753,0.00000000,
